unix_timestamp,acc_x,acc_y,acc_z,gyro_x,gyro_y,gyro_z
1790139534.6525474,-0.0057,0.01522,-0.99989,0.00498,0.00674,0.00032
1790139534.8538213,-0.00593,0.0137,-0.99898,0.00535,0.00489,-0.0017
1790139535.0573266,-0.00615,0.01325,-0.99985,0.00384,0.00741,0.00152
1790139535.0573266,-0.00577,0.01355,-1.00022,0.00387,0.0038,-0.00038
1790139535.263402,-0.00439,0.01403,-0.99987,0.00571,0.00217,0.00154
1790139535.263402,-0.00576,0.01457,-1.00005,0.00416,0.00638,2e-05
1790139535.3732178,-0.00367,0.01329,-1.0014,0.00396,0.00518,-0.00187
1790139535.4728205,-0.00662,0.01288,-1.00346,0.0031,0.00534,0.00132
1790139535.6716056,-0.00515,0.01238,-1.00005,0.00276,0.00579,0.00167
1790139535.677414,-0.00561,0.01335,-1.00021,0.00279,0.0045,0.00049
1790139535.859042,-0.0077,0.01385,-1.00109,0.0051,0.00527,0.00205
1790139535.8718479,-0.00362,0.01413,-1.00106,0.00339,0.00675,0.00121
1790139535.9840398,-0.00738,0.01333,-0.99965,0.00437,0.00284,0.00194
1790139536.078212,-0.00388,0.01281,-1.00071,0.00143,0.00509,-0.00074
1790139536.2857866,-0.00575,0.01337,-0.99924,0.00442,0.00396,-0.00107
1790139536.2857866,0.00225,0.01473,-1.00031,0.00662,0.00238,-0.0006
1790139536.4624994,-0.01431,0.01637,-1.00083,0.00441,0.00379,0.00353
1790139536.6885188,-0.00327,0.01411,-1.00148,0.00399,0.0063,0.00041
1790139536.7051013,-0.00794,0.01493,-1.00177,0.00015,0.00411,-0.00149
1790139536.8999627,-0.01233,-0.00324,-1.00257,0.00059,0.00047,0.00449
1790139537.0742521,-0.01357,0.0052,-1.0006,0.00461,0.00553,0.01767
1790139537.0914035,-0.00162,0.0167,-1.00285,0.00272,0.00508,-0.0052
1790139537.3159168,-0.01213,0.01301,-1.00253,0.00311,0.00304,0.00522
1790139537.479657,-0.00439,0.01451,-1.00057,0.00181,0.00525,-0.0034
1790139537.7270324,-0.00677,0.0124,-1.00099,0.00353,0.00346,4e-05
1790139537.7270324,-0.00874,0.01312,-0.99925,0.00177,0.00411,0.00169
1790139537.894917,-0.02932,-0.00379,-0.9999,0.00284,0.00671,0.04018
1790139537.9108217,-0.00419,0.01661,-1.00246,0.0008,0.00542,-0.00738
1790139538.1369529,-0.00748,0.01164,-1.00047,0.00127,0.00325,-0.03022
1790139538.3305652,-0.01028,0.01196,-1.00022,0.00432,0.00908,0.00327
1790139538.3305652,0.00249,0.01367,-0.9999,0.00557,0.00797,-0.0045
1790139538.4914067,-0.00733,0.01364,-1.00116,0.00254,0.00465,0.00107
1790139538.7482183,-0.00966,0.01331,-0.99909,0.00356,0.00436,0.0004
1790139538.9415922,-0.00432,0.0131,-1.00145,0.00379,0.00531,-0.00155
1790139538.9415922,-0.00446,0.01508,-1.00108,0.00498,0.00691,-0.00293
1790139539.1517165,-0.00539,0.01225,-1.00067,0.00157,0.0039,-0.00025
1790139539.1517165,-0.00589,0.01441,-0.99993,0.00067,0.00609,0.00246
1790139539.3606057,-0.00473,0.01393,-1.00138,0.00237,0.00289,-0.0009
1790139539.3644023,-0.00528,0.01421,-1.00039,0.00291,0.00758,0.00015
1790139539.5224488,-0.00816,0.01476,-1.00163,0.0007,0.00508,0.00081
1790139539.5244477,-0.01128,0.01945,-0.99916,0.00581,-0.0032,0.0186
1790139539.7156699,-0.00899,0.00405,-0.99982,0.00311,0.00549,0.00648
1790139539.9757524,-0.00554,0.01446,-1.00032,0.0058,-0.00066,0.01605
1790139539.9757524,-0.00893,0.01189,-1.00136,0.00148,0.00175,0.00249
1790139540.1809995,-0.0044,0.0118,-1.00095,0.00329,0.00933,-0.00124
1790139540.3770502,-0.01178,0.00434,-1.00136,0.00853,0.00636,0.02957
1790139540.5256608,0.00023,0.01604,-1.0021,0.00525,0.00565,-0.01272
1790139540.5345263,-0.01015,0.02001,-1.00035,0.00546,0.00472,-6e-05
1790139540.801938,-0.00687,0.01199,-1.00216,0.00455,0.0063,0.00414
1790139540.9899263,-0.00869,0.01387,-1.00042,0.00501,0.00665,-0.00088
1790139541.0099072,0.00717,0.03425,-1.00168,-0.00044,0.00539,-0.03313
1790139541.1013904,-0.01047,0.00552,-0.99987,0.00498,0.00417,0.00884
1790139541.1647377,-0.0074,0.0106,-1.00011,0.00345,0.00751,0.00614
1790139541.2980843,0.0818,0.01129,-1.00161,0.00088,0.01971,0.00949
1790139541.3726408,0.25731,0.02672,-1.00884,-0.02298,0.01083,0.01077
1790139541.4852343,0.06821,-0.05031,-1.04049,0.01476,-0.06877,0.03687
1790139541.549492,-0.07828,0.03747,-0.97347,0.01453,-0.00746,-0.04978
1790139541.6933675,-0.12788,0.02252,-1.01916,-0.01217,-0.03547,-0.01153
1790139541.7412388,-0.00502,-0.03076,-0.99657,-0.05141,0.02988,0.04746
1790139541.8845088,0.09326,0.02417,-0.99479,0.01624,0.00841,-0.00222
1790139541.950541,0.01017,7e-05,-1.00397,-0.00055,-0.00133,0.03589
1790139542.125794,-0.0621,0.04355,-0.97245,-0.03331,0.01261,-0.0204
1790139542.1899738,-0.06064,0.01585,-0.99489,-0.01029,0.04319,0.01762
1790139542.2707753,0.01022,0.02198,-0.99696,0.01978,0.02099,-0.0186
1790139542.3912094,0.03356,0.03561,-1.00474,-0.00184,0.01658,-0.03473
1790139542.4474404,-0.00323,-0.01056,-1.02617,-0.02398,-0.03117,0.04536
1790139542.5857594,-0.04241,-0.00301,-1.01712,-0.04573,0.00373,0.01398
1790139542.6405544,-0.01632,0.02733,-0.98139,0.00774,0.04023,-0.03427
1790139542.7909431,-0.00165,0.01004,-0.9951,-0.00349,0.00145,0.02405
1790139542.89776,0.00612,0.02334,-1.00729,-0.01023,-0.02626,0.01822
1790139543.026406,-0.01773,0.00338,-0.99964,-0.00987,0.00441,-0.02611
1790139543.0915504,-0.03183,-0.0042,-1.00721,0.00141,-0.02284,0.00821
1790139543.1719077,-0.01784,0.00271,-1.01589,-0.01718,-0.01964,0.05188
1790139543.44509,0.00791,0.00502,-1.01101,0.01328,-0.00413,-0.00366
1790139543.5450814,-0.24215,0.03908,-0.99677,0.01759,0.00994,0.04735
1790139543.6542556,0.00583,0.02533,-1.01073,-0.00259,0.02274,-0.04838
1790139543.863952,0.03351,-0.00312,-0.99702,0.00132,0.00293,0.00027
1790139543.863952,0.00125,0.01573,-0.99976,0.0047,0.00347,0.00444
1790139543.8923562,0.00086,0.01183,-1.0007,0.00131,0.00321,0.0023
1790139543.994074,-0.00156,0.01758,-0.99954,0.00486,0.00704,0.00033
1790139544.1938603,-0.01017,0.01405,-0.99952,0.00248,0.00502,0.00186
1790139544.2030988,-0.01265,0.0166,-1.00215,0.00287,0.00315,-0.00016
1790139544.316226,-0.00817,0.01435,-1.00133,0.00246,0.0026,0.00043
1790139544.4778714,-0.0132,0.01265,-0.99947,0.0029,0.00355,0.00965
1790139544.4778714,-0.01138,0.0208,-1.00001,0.00247,0.00793,-0.00211
1790139544.686501,-0.00717,0.01563,-1.00077,4e-05,0.00529,-0.00073
1790139544.686501,-0.0081,0.01642,-0.99948,0.00429,0.00852,0.00081
1790139544.880498,-0.01037,0.01202,-0.9999,0.00152,0.00532,-0.00049
1790139545.0575826,-0.00227,0.04394,-0.9988,0.00137,0.00745,-0.04142
1790139545.0734253,-0.0126,0.00656,-1.00169,0.00596,0.00907,0.01531
1790139545.3012238,-0.00379,0.03316,-1.00278,0.0054,-0.00021,-0.04004
1790139545.3143342,-0.00805,0.01229,-1.00006,0.00555,0.00443,0.00617
1790139545.4995625,-0.00991,0.01548,-0.99962,0.00157,0.00589,0.00031
1790139545.5122788,-0.00622,0.0165,-1.00106,0.0041,0.00443,0.00209
1790139545.7019823,-0.01186,0.00251,-1.00221,0.00085,-0.00146,0.03188
1790139545.8797965,-0.02778,-0.01637,-1.00233,0.00474,0.00484,0.03876
1790139545.8797965,-0.01142,0.01158,-1.0003,0.00353,0.00399,0.01316
1790139546.003232,-0.00345,0.02694,-0.99891,0.0008,0.0045,-0.01436
1790139546.1057732,-0.02406,0.01183,-1.0016,0.0027,0.00621,0.00279
1790139546.1217234,-0.01454,0.01115,-1.00185,0.00245,0.00653,0.00354
1790139546.3128188,-0.00525,0.01972,-1.00015,0.00248,0.00564,-0.00046
1790139546.3286219,-0.00781,0.01468,-0.99899,0.00403,0.00381,0.00243
1790139546.5224214,-0.01085,0.01814,-1.00054,0.00292,0.00603,-0.00117
1790139546.5224214,-0.00715,0.01446,-1.00189,0.00375,0.00454,0.00134
1790139546.7313814,-0.00947,0.0166,-1.00048,0.0043,0.00547,0.00178
1790139546.9392989,-0.01078,0.01374,-1.00024,0.00291,0.00411,0.00061
1790139547.139374,-0.00894,0.01749,-1.00066,0.00175,0.00557,0.00193
1790139547.3418489,-0.00857,0.01457,-1.00257,0.00368,0.00566,0.00171
1790139547.5528398,-0.00865,0.0153,-1.0001,0.00285,0.00496,0.00192
1790139547.5528398,-0.00804,0.02449,-0.99947,0.0067,0.00434,0.00374
1790139547.7285411,-0.01098,-0.01241,-1.00138,0.0005,0.01605,0.02615
1790139547.7445757,-0.00646,0.01934,-1.00055,0.00405,-2e-05,-0.00349
1790139547.9519684,-0.01242,0.01337,-0.99961,0.00329,0.00409,0.00864
1790139548.0941896,-0.00949,0.01903,-1.00205,0.00377,0.00622,0.00222
1790139548.160943,-0.00907,0.01515,-0.99942,0.00146,0.00426,-0.00327
1790139548.364518,-0.00633,0.02251,-1.00111,0.00477,0.00534,-0.02964
1790139548.4912207,-0.01296,-0.00346,-1.00123,0.00539,0.00512,0.03591
1790139548.527138,-0.00901,0.01759,-0.99896,0.00413,0.0022,-0.00175
1790139548.7786286,-0.0051,0.02848,-1.00043,0.00132,0.0065,-0.01326
1790139548.7786286,-0.00926,0.01145,-0.99947,0.00348,0.00549,0.00067
1790139548.8417194,-0.01007,0.01528,-1.00088,0.0023,0.00555,0.00384
1790139548.9872456,0.04117,-0.00668,-1.01693,-0.05352,-0.04119,1.45334
1790139549.1831946,-0.00155,-0.05627,-1.00675,0.00238,0.03058,1.44018
1790139549.1831946,0.00311,-0.03055,-1.02976,0.00081,-0.01375,1.53539
1790139549.3911357,0.01428,0.0123,-1.02111,0.00905,-0.0137,1.53394
1790139549.3911357,0.02171,0.01783,-1.01257,0.03518,-0.02828,1.50555
1790139549.6017983,0.03454,0.00306,-0.96927,0.0459,0.01033,1.52248
1790139549.7981763,0.0172,-0.02972,-0.96561,-0.00175,0.03484,1.58708
1790139549.7981763,0.02377,-0.00621,-1.02843,0.00291,0.00321,1.59727
1790139550.0089366,0.00859,-0.01111,-1.00807,0.00813,-0.01465,1.62288
1790139550.0125415,0.02562,0.0247,-1.01995,-0.00419,-0.0669,1.56862
1790139550.2154138,0.03452,0.02816,-0.9894,0.048,-0.00858,1.55339
1790139550.2154138,0.03948,0.01966,-0.97114,-0.00437,0.01409,1.50554
1790139550.4221966,0.00915,-0.05015,-1.00005,0.01067,-0.02558,1.64798
1790139550.4221966,0.02094,-0.00349,-1.00845,0.01751,-0.01551,1.57765
1790139550.632953,0.01999,-0.0038,-0.99134,-0.00149,0.0005,1.53271
1790139550.8250117,0.02651,-0.02364,-1.01022,0.00603,0.00587,1.60404
1790139551.033696,0.00954,-0.01619,-1.01416,-0.00494,-0.00367,1.60735
1790139551.033696,0.01587,0.04957,-1.02404,-0.00442,-0.00757,0.56008
1790139551.2351825,0.00271,0.06513,-1.00216,0.0051,-6e-05,0.19119
1790139551.340228,-0.00763,0.01015,-0.99997,0.00573,0.00859,-0.0065
1790139551.4409568,-0.007,0.00013,-1.0007,0.00391,0.00424,0.00139
1790139551.6191633,-0.01352,0.01117,-1.00122,0.00357,0.00542,-0.02955
1790139551.634909,0.00464,0.00557,-0.99912,0.00149,0.00722,-0.01286
1790139551.8456867,0.00188,0.00136,-1.00035,0.00542,0.00173,-0.00031
1790139551.8456867,-0.00823,0.00298,-0.99975,0.00424,0.00639,-0.00033
1790139552.0546012,-0.01136,0.00202,-1.00196,0.00108,0.0052,-0.00018
1790139552.0546012,-0.00795,0.00043,-0.99972,0.00335,0.00445,-4e-05
1790139552.2649333,-0.00451,0.00304,-1.00164,0.00529,0.00667,2e-05
1790139552.2649333,-0.00823,0.00227,-1.00078,0.00418,0.00429,0.00154
1790139552.4554484,-0.00782,0.00242,-1.00049,0.00272,0.00513,0.00033
1790139552.4554484,-0.01593,-0.00186,-1.00292,0.00094,0.00995,0.0181
1790139552.5680344,0.00241,-0.01679,-1.00044,0.0054,-0.00097,0.0303
1790139552.5837374,-0.00578,0.01839,-1.00005,0.00361,0.00606,-0.00951
1790139552.7162392,-0.01059,-0.00461,-1.00076,0.00289,0.00421,0.00248
1790139552.8247225,0.1681,-0.00027,-0.99086,0.01615,0.04962,-0.01203
1790139552.9520726,0.21841,-0.00389,-0.98567,0.05268,-0.03391,0.04499
1790139553.032337,-0.14016,0.00937,-0.98416,0.00914,-0.00601,-0.00081
1790139553.1475494,-0.09876,0.00145,-0.99152,-0.0096,-0.00066,0.01898
1790139553.2263062,0.03577,0.00314,-0.99148,0.01105,0.01782,-0.01332
1790139553.3487408,0.07269,0.01361,-1.03015,0.02821,-0.02755,-0.01816
1790139553.419433,-0.02158,0.00659,-0.99721,-0.02359,0.02384,0.01277
1790139553.5501513,-0.08907,-0.02938,-1.02251,-0.04536,0.00498,0.04076
1790139553.6506603,-0.02872,-0.00365,-0.99517,0.00631,0.02222,-0.02725
1790139553.789051,0.02665,-0.00737,-1.00732,0.00554,0.01498,0.01457
1790139553.853454,0.02788,0.01204,-0.97559,0.03593,0.01867,-0.0215
1790139553.9338343,-0.01663,0.04108,-0.9948,0.04099,0.02195,-0.05001
1790139554.0941248,-0.04974,1e-05,-1.03802,-0.00789,0.01533,0.00551
1790139554.1747622,0.0038,-0.00361,-1.01041,-0.03297,-0.00689,0.01719
1790139554.2549393,0.00306,-0.0226,-1.01271,0.013,0.03611,0.03086
1790139554.3692303,-0.00303,-0.02807,-0.9998,-0.02231,0.00338,0.03631
1790139554.4563935,-0.01403,0.01468,-0.99426,0.01673,0.00968,-0.0137
1790139554.5607138,-0.02232,0.04445,-1.00967,0.04419,0.02986,-0.06224
1790139554.65992,-0.01861,0.01736,-1.00697,0.01684,0.0276,-0.01196
1790139554.9162078,-0.02004,0.00119,-0.97955,0.01085,0.00063,0.00317
1790139554.9319048,-0.26699,0.01893,-0.9886,0.00989,0.02179,-0.01545
1790139555.125324,-0.12856,-0.03415,-0.99496,-0.00828,0.02682,0.01925
1790139555.125324,-0.01454,0.02101,-0.99946,-0.00133,0.01,-0.00874
1790139555.33441,-0.00743,-0.00378,-0.99906,0.00178,0.0059,0.00418
1790139555.33441,-0.01062,0.00073,-1.00101,0.00301,0.00512,0.00141
1790139555.5388284,-0.01502,0.01001,-1.00088,-0.00099,0.00589,-0.01611
1790139555.652286,-0.01209,-0.00488,-0.99937,-0.00097,0.00388,0.01392
1790139555.6681116,-0.00544,0.0134,-1.00019,0.00451,0.0079,-0.00612
1790139555.9264784,-0.01031,-0.00024,-1.00019,0.00116,0.0042,-0.01384
1790139555.9399881,-0.01335,-0.00216,-1.00174,0.00348,0.00594,0.0107
1790139556.1528845,-0.00205,-0.00783,-1.00155,0.00722,0.00291,-0.00718
1790139556.3538024,-0.01702,0.00139,-1.0002,0.00482,0.00452,0.0022
1790139556.3538024,-0.00811,-0.00431,-1.00062,0.00492,0.00472,0.00374
1790139556.5619054,-0.0103,0.00068,-0.99885,0.00201,0.00521,0.00206
1790139556.566656,-0.00933,-0.00023,-0.99988,0.00306,0.00412,0.00103
1790139556.672747,-0.00387,0.01445,-1.00126,-0.00085,0.00682,-0.00154
1790139556.6886501,-0.0067,0.02236,-0.99979,0.00867,0.00128,-0.02687
1790139556.9774258,-0.01572,-0.00969,-0.9996,0.00032,0.0081,0.01332
1790139556.9774258,-0.00448,-0.00839,-0.99936,0.00338,0.0076,0.00818
1790139557.1706195,-0.00972,0.00154,-0.99984,0.00216,0.00673,-0.00024
1790139557.3829107,-0.00723,0.00088,-0.99934,0.00449,0.00303,-0.00041
1790139557.5666392,-0.00705,0.02739,-0.99993,0.00641,0.0103,-0.01189
1790139557.5762844,-0.00686,-0.0085,-1.00033,0.00071,0.00618,-0.00103
1790139557.6843648,-0.00777,-0.00771,-1.00171,0.00574,0.00607,0.03808
1790139557.7848597,-0.03289,-0.00155,-1.00044,0.00212,0.0038,0.00849
1790139557.9893715,-0.00968,-0.0083,-1.00168,0.00081,0.0026,0.00548
1790139558.2009194,-0.0121,0.00101,-1.00037,0.00403,0.00375,-0.0015
1790139558.2009194,-0.01186,0.00285,-1.00135,0.00429,0.00384,-0.00552
1790139558.395809,-0.00835,-0.0002,-1.00073,0.0025,0.0047,0.00181
1790139558.411615,-0.01117,0.00149,-1.0015,0.00155,0.00288,-0.00024
1790139558.6083844,-0.01135,0.00011,-1.00096,0.00205,0.00441,-0.00206
1790139558.6083844,-0.00988,-0.00012,-1.0013,0.00501,0.00995,0.0017
1790139558.6861267,-0.01038,0.00297,-1.00219,0.00413,0.00526,-0.00216
1790139558.8157058,-0.01024,0.00385,-1.00202,0.00307,0.00378,0.00092
1790139558.8315675,-0.01024,-0.00106,-0.99998,0.00387,0.00451,-0.00382
1790139559.0118585,-0.01032,-0.00012,-0.99909,-0.00015,0.00376,0.00068
1790139559.2231712,-0.01001,0.00235,-1.00185,0.00459,0.00452,-0.00039
1790139559.4103699,0.00371,0.03082,-1.00268,0.00061,0.00602,-0.02858
1790139559.4103699,-0.00723,0.00334,-1.00002,0.00301,0.00194,0.00405
1790139559.6373918,-0.01225,0.00517,-0.99964,0.00693,0.00473,-0.00477
1790139559.6373918,-0.01624,0.0117,-1.00027,0.00275,0.00662,0.02289
1790139559.653646,-0.00876,0.00891,-0.99966,0.00567,0.00483,-0.00374
1790139559.831409,-0.00965,0.00078,-1.00084,0.00302,0.00755,0.00147
1790139559.8472955,-0.00945,0.00041,-1.00064,-0.00032,0.00516,-0.0031
1790139560.0414464,-0.01257,-0.00776,-0.99731,0.00569,0.00995,0.0321
1790139560.0414464,0.00727,-0.02191,-0.99982,0.0026,0.01615,0.01523
1790139560.1709123,-0.00715,0.0001,-1.00031,0.00488,0.00786,-0.00019
1790139560.4442377,-0.01499,-0.00378,-1.00101,0.00134,0.00622,-0.00015
1790139560.4442377,-0.00852,0.00049,-1.00109,0.00188,0.00533,0.00176
1790139560.4600444,-0.01007,0.00091,-1.00199,-0.00019,0.00659,-0.00083
1790139560.6530385,-0.01044,0.00213,-0.99969,0.00255,0.00509,-0.00106
1790139560.6692154,-0.01539,-0.07642,-1.01998,0.01369,0.02866,-1.42104
1790139560.8634427,0.01498,0.04156,-1.00029,0.04495,-0.00448,-1.387
1790139560.8634427,0.00651,-0.00927,-0.99922,0.02039,-0.00528,-1.48692
1790139561.072721,0.02604,-0.02913,-1.01233,0.01112,0.00733,-1.45153
1790139561.2664938,0.02668,0.04737,-1.00258,-0.03081,-0.00546,-1.57134
1790139561.2664938,0.02825,0.00043,-0.99811,0.02251,-0.00545,-1.57168
1790139561.4745278,0.02312,0.00883,-0.98398,0.00254,0.02701,-1.54717
1790139561.4745278,0.02224,0.01737,-0.99946,0.02649,0.00138,-1.57506
1790139561.495819,0.01715,-0.03225,-0.99225,0.00499,0.01689,-1.5447
1790139561.6844614,0.03681,0.01998,-0.99181,-0.04708,0.02756,-1.58967
1790139561.6844614,0.01918,0.02391,-1.00837,0.00425,0.00829,-0.61697
1790139561.8772233,-0.03393,-0.02804,-1.00817,-0.01105,0.01058,-0.15367
1790139561.8953414,-0.00318,0.03029,-1.00181,0.00781,-0.00337,-0.00568
1790139562.0703812,0.01167,0.00844,-0.99928,0.00406,0.00769,-0.00077
1790139562.2967186,-0.00058,0.00975,-1.00011,0.00123,0.00301,-0.00093
1790139562.2967186,-0.00757,0.00716,-0.99951,0.00459,0.00624,0.00144
1790139562.315454,-0.00493,0.00776,-1.00089,0.00274,0.00617,-0.00059
1790139562.5029042,0.00216,0.02381,-1.00093,0.00564,0.0058,-0.02793
1790139562.512416,0.00158,0.00188,-0.99913,0.0036,0.0087,-0.00054
1790139562.7021842,-0.00255,0.00767,-1.00207,0.00318,0.00436,0.00216
1790139562.9086988,0.00455,0.01761,-1.00039,0.00648,-0.00402,-0.0297
1790139562.9225838,-0.01652,0.02046,-1.00325,-0.00272,-0.00712,0.01038
1790139563.0346813,9e-05,0.02493,-1.00279,0.0066,0.00358,-0.02066
1790139563.161855,0.02123,0.00152,-0.99789,0.00104,0.01175,0.00063
1790139563.289284,0.24065,0.02712,-0.99921,-0.00679,0.05319,-0.01829
1790139563.3705895,0.16963,0.01017,-0.96257,0.01227,0.02709,-0.02613
1790139563.483371,-0.06417,-0.02648,-1.03491,-0.00807,-0.04906,0.08249
1790139563.5466435,-0.1224,0.02746,-0.96495,0.01307,0.00057,-0.01744
1790139563.6812298,-0.04336,0.00972,-0.9914,-0.01874,0.02048,-0.00172
1790139563.7553616,0.08053,0.00552,-0.97744,0.04662,0.0365,0.01877
1790139563.946216,0.05753,0.01113,-0.99005,0.02318,-0.02757,-0.00791
1790139563.946216,-0.04162,-0.00581,-1.00857,0.01926,-0.00452,0.00743
1790139564.074083,-0.04743,0.02722,-1.03097,0.01286,-0.02863,-0.01333
1790139564.2501714,-0.00146,0.02283,-1.00828,-0.01002,-0.01961,-0.02124
1790139564.2659287,0.01882,-0.00649,-1.02715,-0.04167,0.01294,0.03043
1790139564.3760748,0.0041,0.00756,-0.97695,0.02318,-0.00682,-0.00596
1790139564.5095503,-0.01201,0.03253,-0.98681,0.01962,0.02693,-0.01742
1790139564.5732183,-0.05032,0.00222,-1.01219,-0.0351,-0.01846,0.0287
1790139564.6979156,0.00575,0.00511,-1.01435,0.00351,-0.01709,-0.01581
1790139564.8250086,0.00115,0.01337,-1.00289,0.02094,0.00797,-0.01604
1790139564.964856,-0.0233,0.01469,-0.99561,0.0215,0.03178,0.02612
1790139564.964856,-0.01504,0.02803,-0.98465,0.01521,0.03678,-0.02821
1790139565.0930045,-0.00721,-0.00115,-0.97541,-0.01428,0.01688,0.00518
1790139565.1735423,-0.01949,0.0053,-1.01464,0.01113,0.01379,-0.00979
1790139565.3670392,-0.14802,0.0327,-1.01432,-0.01696,-0.00235,-0.04952
1790139565.5759668,-0.01269,0.00112,-0.99954,-0.00756,0.01047,-0.04062
1790139565.785054,0.02538,-0.01778,-1.00148,0.00387,0.01109,0.0323
1790139565.9721043,-0.01864,0.00478,-1.00105,0.00781,0.00477,-0.00511
1790139565.9874015,-0.02408,0.02765,-1.00053,0.00542,0.00635,-0.05056
1790139566.0857074,-0.01768,-0.00157,-1.00046,0.00365,0.00211,0.00954
1790139566.1972597,-0.01154,0.00265,-0.99935,0.00235,0.0029,0.0025
1790139566.374848,-0.00842,0.01565,-0.99942,0.00091,0.00569,-0.00643
1790139566.3938594,-0.01372,0.00509,-0.99852,0.00574,0.00766,0.00269
1790139566.5372422,-0.01556,0.00839,-0.99942,0.00333,0.00555,0.00024
1790139566.617654,-0.01473,5e-05,-1.00175,0.00384,0.00172,0.00524
1790139566.784907,-0.01305,0.00553,-1.00172,0.00218,0.00557,-0.00076
1790139567.0050268,-0.01082,0.01134,-0.99988,0.00534,0.0064,-0.00192
1790139567.0050268,-0.01603,0.00624,-1.00052,0.00501,0.00558,0.00206
1790139567.1982899,-0.01361,0.01073,-1.00116,0.00608,0.00778,-0.02479
1790139567.2949924,-0.0195,-0.01202,-1.00244,0.00491,0.00613,0.01514
1790139567.4075477,-0.01623,-0.00087,-1.00107,-0.00119,0.00437,-0.00159
1790139567.6257722,-0.01477,0.00897,-1.00056,0.00425,0.00238,0.00261
1790139567.7985537,-0.016,0.00922,-0.99907,0.00474,0.00527,0.00173
1790139567.9705393,-0.01175,0.02782,-0.99807,0.00361,0.00916,-0.01181
1790139568.036759,-0.01175,0.02782,-0.99807,0.00361,0.00916,-0.01181
1790139568.2379143,-0.03039,-0.01636,-0.99919,0.00939,0.00216,0.01026
1790139568.4388864,-0.01336,0.00478,-0.9995,0.00328,0.00719,0.0035
1790139568.643009,-0.01127,0.00757,-1.00095,0.00365,0.00287,0.0002
1790139568.8055723,-0.01567,0.00756,-1.00184,0.00513,0.00706,0.00374
1790139569.0472965,-0.01339,0.00849,-1.00019,0.00223,0.00469,-0.00015
1790139569.2567444,-0.01529,0.0066,-0.99912,0.00206,0.00295,0.00084
1790139569.4663534,-0.01258,0.00824,-1.00092,0.00262,0.00676,-0.00099
1790139569.659623,-0.00471,0.02529,-0.99884,-0.00177,0.01157,-0.0111
1790139569.81166,-0.00638,0.00107,-1.00016,-0.00157,0.01032,0.00075
1790139569.8271074,-0.01258,0.01299,-0.99869,0.00179,0.00308,-0.01165
1790139570.0768394,-0.01486,0.0089,-1.00044,0.0062,0.0095,0.00398
1790139570.277963,-0.01398,0.01056,-0.99843,0.00186,0.00389,0.00337
1790139570.277963,-0.01157,0.00806,-1.00101,0.00147,0.00636,-0.0042
1790139570.4854348,-0.0063,0.00759,-1.00204,0.00833,-0.00117,-0.03586
1790139570.6952412,-0.00637,-0.00205,-1.00267,0.00157,0.00697,0.00664
1790139570.6952412,-0.01909,0.01008,-0.99818,0.00445,0.0025,0.00558
1790139570.823286,-0.01199,0.01014,-0.9995,0.00602,0.00306,-0.00131
1790139570.823286,-0.01109,0.00475,-0.99992,0.0017,0.0068,-0.00088
1790139570.93789,-0.0138,0.00658,-1.00066,0.00408,0.00412,-0.002
1790139571.0936806,-0.0073,-0.00278,-0.99864,0.00387,0.01414,0.02162
1790139571.2067695,-0.01682,0.00505,-0.99961,0.0073,0.00419,-0.00506
1790139571.270859,-0.01439,0.00399,-1.00153,0.00431,0.00464,0.00018
1790139571.334889,0.04989,0.00784,-0.99752,0.0099,0.0196,0.0049
1790139571.4640129,0.23423,0.01723,-0.98763,0.01506,0.02101,0.02031
1790139571.5276382,0.11572,0.01709,-1.00829,0.0259,-0.06058,-0.01272
1790139571.671729,-0.09918,0.01741,-0.99516,-0.00996,-0.00793,-0.03506
1790139571.7994487,-0.14397,-0.01341,-0.9874,0.02118,0.02875,0.033
1790139571.8565218,-0.02098,0.02126,-0.99592,0.00998,0.01378,-0.03447
1790139571.9742918,0.08414,0.01364,-1.00455,0.00501,0.01007,-0.00229
1790139572.0572076,0.03226,-0.00083,-1.0173,0.003,-0.07386,0.01349
1790139572.165336,-0.07373,-0.03722,-1.02524,-0.04165,-0.05529,0.04669
1790139572.2970448,-0.06346,0.00186,-0.97991,-0.03574,0.01045,-0.0111
1790139572.3723109,0.00335,-0.00109,-0.99313,-0.01133,0.02582,0.00999
1790139572.4841845,0.0178,-0.00067,-0.98244,0.01064,0.01615,0.00425
1790139572.5584028,0.00652,0.03415,-0.99592,0.02473,0.04518,-0.04053
1790139572.690301,-0.04214,-0.00618,-0.99717,0.08581,0.01971,0.02308
1790139572.753741,-0.04448,-0.00011,-1.01565,-0.00126,0.01433,0.01353
1790139572.8663292,0.00353,0.00465,-1.01064,-0.05491,-0.01933,0.00399
1790139572.9942765,0.00859,-0.00921,-0.97923,0.03363,0.0274,0.02608
1790139573.0799713,0.00859,0.02044,-0.99644,0.01174,0.01083,-0.02421
1790139573.2607749,-0.00726,0.04374,-0.99716,0.003,-0.01562,-0.05628
1790139573.2692363,-0.01848,0.01923,-0.99928,0.02571,0.0044,-0.02758
1790139573.5615046,-0.00564,0.01902,-1.0088,0.00871,-0.01407,-0.01957
1790139573.5676205,-0.11317,-0.01167,-1.00021,-0.00308,-0.00368,0.17009
1790139573.767463,0.01412,0.00671,-0.9993,-0.00103,0.00396,-0.02896
1790139573.767463,0.00276,-0.0065,-0.99732,0.00605,0.0027,0.00143
1790139573.963428,-0.00757,0.00901,-0.99961,0.00375,0.00572,-0.00147
1790139574.177057,-0.01101,0.00662,-1.00129,0.00173,0.00406,0.00111
1790139574.177057,-0.00885,0.00662,-1.00283,0.00324,0.00652,0.002
1790139574.2900352,-0.00875,0.00258,-1.00178,0.00272,0.00486,0.00464
1790139574.3868206,-0.00882,0.00779,-0.99806,0.00522,0.00619,0.0016
1790139574.5660946,-0.00702,0.00744,-1.00157,0.00238,0.00496,0.00215
1790139574.7415283,-0.00919,0.00875,-1.00063,0.0053,0.0057,0.00065
1790139574.789629,-0.01063,0.00589,-1.00084,0.00064,0.0086,0.00141
1790139574.9835064,-0.007,0.00538,-0.99982,0.0025,0.0114,-0.00161
1790139574.9835064,-0.01024,0.00519,-1.00093,0.00158,0.00536,-0.00137
1790139575.1928904,-0.00841,0.00665,-1.00081,0.00134,0.00514,0.00034
1790139575.3701563,-0.00888,0.00505,-1.00087,-0.00254,0.00507,0.01691
1790139575.3701563,-0.01137,0.01441,-1.00028,0.00373,0.00328,-0.00548
1790139575.386166,-0.00397,0.01234,-1.00056,0.003,0.00974,-0.02125
1790139575.5055103,-0.01235,0.00075,-1.0005,0.00235,0.00222,0.00854
1790139575.6119957,-0.00565,0.01407,-1.00033,0.00211,0.00578,-0.0022
1790139575.8086615,-0.01021,0.00836,-1.00017,0.00256,0.00626,0.00264
1790139576.0137134,-0.01266,0.00526,-1.00015,0.00405,0.00424,0.00649
1790139576.1904948,-0.00689,0.02953,-0.99987,0.00279,0.00423,-0.01454
1790139576.20631,-0.00769,-0.00047,-1.00009,0.00214,0.00496,0.00711
1790139576.416879,0.00122,0.01887,-0.99993,-0.00197,0.00826,-0.01884
1790139576.43576,-0.01452,0.01281,-1.00015,0.00722,0.00501,0.00396
1790139576.6261625,-0.00745,0.00761,-0.99908,0.00419,0.00602,-0.00386
1790139576.8379886,-0.01006,0.00926,-0.99884,0.00181,0.00983,-0.00118
1790139576.8379886,-0.00938,0.00579,-1.00028,0.00514,0.00263,0.00148
1790139577.0319154,-0.00702,0.0045,-0.99961,0.00171,0.0046,0.00172
1790139577.0449796,-0.01104,0.00607,-0.99934,0.00472,0.00292,0.00134
1790139577.2422776,-0.00627,0.00918,-1.00115,0.00422,0.00355,-0.00297
1790139577.4487808,-0.00743,0.00908,-0.9993,0.0034,0.00863,0.00166
1790139577.658984,-0.00656,0.00699,-1.00162,0.00354,0.00457,-0.00064
1790139577.8536232,-0.00662,0.00722,-0.99977,0.00326,0.00533,-0.00111
1790139578.0306435,-0.00948,0.0061,-1.00237,0.00852,-0.00501,-0.00898
1790139578.0949981,-0.01044,-0.0082,-1.001,0.00478,0.00581,0.0064
1790139578.2741418,-0.00955,0.00904,-1.0018,0.00049,0.00893,0.00123
1790139578.4657261,-0.0099,0.0124,-1.00082,0.00642,0.00437,-0.00216
1790139578.6753664,-0.00969,0.02366,-1.0014,-0.00202,-0.00074,-0.02558
1790139578.8039439,-0.01246,-0.007,-1.00118,0.00549,0.00286,0.02744
1790139578.9005244,-0.00642,0.01693,-1.00059,0.00163,0.00871,-0.00868
1790139579.0920396,-0.01085,0.00919,-1.0012,0.00532,0.00638,-0.00053
1790139579.09408,-0.00701,0.00674,-0.99978,0.00475,0.00485,-0.00044
1790139579.2556748,-0.00853,0.00828,-1.00041,0.00268,0.00562,-0.00055
1790139579.2713566,0.13469,0.37862,-0.98541,0.03058,0.00269,-1.63999
1790139579.4967055,0.01628,0.03261,-0.98698,0.02575,-0.00463,-1.31869
1790139579.673635,0.02732,0.01394,-0.9878,0.01146,0.00488,-1.46793
1790139579.673635,0.03032,0.02422,-0.99305,0.05004,0.00087,-1.52523
1790139579.673635,-0.00064,-0.02205,-1.00763,-0.04074,0.03352,-1.50221
1790139579.9117062,0.03297,0.02743,-0.97345,-0.06416,0.05957,-1.57006
1790139579.9179633,0.02407,-0.02825,-0.99132,-0.00114,0.0431,-1.51515
1790139580.0095165,0.01627,0.02048,-0.99607,0.02213,-0.00701,-1.61146
1790139580.1078048,0.03637,0.07075,-0.97455,0.01745,0.01694,-1.61549
1790139580.312012,0.00671,-0.03244,-1.00816,-0.00165,0.01289,-1.49536
1790139580.5188792,-0.07322,-0.16501,-1.02188,0.00527,0.00998,-0.55653
1790139580.5188792,-0.04256,-0.08036,-1.00865,0.0068,-0.00705,-0.26079
1790139580.5388658,-0.00878,0.02015,-1.001,0.00663,0.00533,0.01782
1790139580.7255967,-0.00536,0.00773,-0.99998,0.0063,0.0043,0.00392
1790139580.7255967,0.00012,0.01129,-0.99859,-7e-05,0.0083,0.00269
1790139580.9190855,-0.00346,0.00884,-0.99952,0.00266,0.00719,0.00171
1790139580.9420943,-0.00934,0.00854,-1.00049,0.00135,0.0022,0.00086
1790139581.1499698,-0.00483,-0.00045,-0.99982,0.00112,0.01014,0.04289
1790139581.1499698,-0.00142,0.00689,-0.99967,0.00272,0.01034,-0.00212
1790139581.3453166,-0.00046,0.01842,-1.00214,0.00359,0.00314,-0.01539
1790139581.3453166,-0.00839,-0.00294,-0.9991,0.00337,0.00365,0.0056
1790139581.5398378,-0.00558,0.01227,-0.99997,0.00406,0.00515,0.00011
1790139581.5398378,-0.0113,-0.00346,-1.00074,0.00793,0.006,0.04226
1790139581.720418,-0.0166,-0.00152,-1.00132,0.00371,0.00242,0.01527
1790139581.7323527,-0.00386,0.0152,-1.00156,0.00078,0.0028,-0.0087
1790139581.8450663,0.2094,0.00333,-1.00747,-0.0328,0.01837,0.05751
1790139581.9096205,0.1699,-0.06455,-1.01458,0.0431,-0.04434,0.03624
1790139582.053594,-0.02504,0.01577,-1.00988,0.00439,-0.02505,0.03025
1790139582.117903,-0.14556,0.03132,-0.99069,0.02763,-0.0252,-0.03256
1790139582.3041215,-0.067,0.00652,-0.98366,-0.02935,0.01977,0.01691
1790139582.3759155,0.06827,0.02169,-0.99542,0.05049,0.00147,0.00948
1790139582.4398875,0.04335,0.01879,-1.01454,0.03444,0.01873,-0.02683
1790139582.6179824,-0.00982,0.00462,-0.9918,-0.01063,0.00226,0.01738
1790139582.6338904,-0.07011,-0.0011,-1.01053,0.00693,-0.00154,0.01082
1790139582.7466266,-0.01495,0.0118,-0.99375,0.01214,0.02579,-0.01554
1790139582.8844917,0.04585,-0.00179,-1.0139,0.00244,-0.01123,-0.01088
1790139582.9379296,0.01337,0.00655,-1.01271,0.03139,-0.01828,0.0002
1790139583.0683565,-0.02844,0.03038,-1.01971,-0.08381,-0.0626,-0.00747
1790139583.1760077,-0.01961,-0.0035,-0.9909,-0.00066,0.02871,-0.00851
1790139583.240814,-0.00888,0.01436,-1.00432,-0.02058,0.02647,0.01164
1790139583.385389,0.00321,0.01328,-1.00142,0.002,0.00529,0.00378
1790139583.4822147,-0.0027,-0.01316,-1.01178,-0.00233,0.00946,0.0229
1790139583.5625474,-0.02397,-0.0017,-0.99127,0.05342,-0.00012,-0.00756
1790139583.7877228,-0.00708,0.04771,-0.98759,0.01991,-0.00267,-0.04147
1790139583.805503,-0.01048,0.00934,-0.99408,-0.00219,0.03549,0.01969
1790139583.9564817,-0.19277,0.00297,-0.99396,0.0062,0.01213,0.02953
1790139583.9813235,-0.12093,0.00156,-1.0045,0.01832,0.00117,-0.07958
1790139584.2145286,-0.01016,-0.00801,-1.00407,0.00392,0.00086,-0.0066
1790139584.2145286,-0.00752,0.00999,-1.00001,0.00432,0.00871,-0.007
1790139584.4212162,-0.01458,0.0078,-1.00198,0.00383,0.00322,0.00321
1790139584.6208513,-0.01256,0.03935,-1.00056,-0.00034,0.00113,-0.03244
1790139584.7367053,-0.01172,0.006,-0.99987,8e-05,0.00498,0.00577
1790139584.8292835,-0.01089,0.00801,-1.00244,0.00252,0.00508,0.00323
1790139584.962472,-0.011,0.00786,-1.00141,0.00658,0.00444,-0.00243
1790139584.9746008,-0.01167,0.0084,-1.00011,0.00267,0.00531,0.00723
1790139585.1527185,-0.00879,0.0118,-1.00062,0.00234,0.00558,-4e-05
1790139585.2335541,-0.00963,0.0072,-1.00016,0.00237,0.0046,-0.00115
1790139585.426177,-0.00405,0.00305,-1.00015,0.00467,0.00427,0.0029
1790139585.4422433,-0.01826,0.00812,-1.00139,0.00081,0.00502,0.00123
1790139585.538486,-0.01059,0.00767,-0.99842,0.00488,0.00709,0.0019
1790139585.5865068,-0.00534,0.00899,-0.99951,0.00034,0.00273,-0.00083
1790139585.8447788,-0.01213,0.00782,-1.00163,0.00016,0.00406,0.00179
1790139585.9738615,-0.01708,-0.0124,-1.0019,0.00075,0.00699,0.01056
1790139585.989599,-0.01514,-0.00636,-0.99968,0.0013,0.00678,0.02045
1790139586.2467685,-0.00676,0.01213,-0.9991,0.00464,0.00466,-0.00511
1790139586.4555373,-0.01281,0.00071,-1.00169,0.00334,0.0018,0.01026
1790139586.4555373,-0.01096,0.00868,-1.00015,0.00445,0.00659,0.00132
1790139586.6651092,-0.01282,0.00998,-1.00154,0.00072,0.00372,0.00133
1790139586.6651092,-0.01062,0.00861,-1.00052,-0.00152,0.00625,-0.001
1790139586.8423617,0.00679,0.02515,-1.00009,-0.00209,0.00734,-0.00864
1790139586.9873931,-0.00333,-0.00559,-1.00223,0.00243,0.00358,0.01747
1790139587.0677786,-0.01936,0.0125,-0.99908,0.00442,0.00871,0.00889
1790139587.2770972,-0.00898,0.00605,-1.00162,0.00185,0.00538,-0.00528
1790139587.2770972,-0.00623,0.00598,-1.00025,0.0058,0.00553,0.00449
1790139587.4837759,-0.01214,0.00716,-1.00042,0.00223,0.00873,0.00128
1790139587.6934948,-0.01049,0.00742,-0.99872,0.00226,0.00291,0.00284
1790139587.6934948,-0.00907,0.00858,-1.0002,0.00384,0.00446,-0.00026
1790139587.887969,-0.01106,0.00864,-1.00091,0.00435,0.00584,0.00484
1790139588.0072687,-0.01104,0.00736,-1.00054,0.00151,0.00646,0.00303
1790139588.0919685,-0.01062,0.01062,-1.0,0.00278,0.00665,0.00076
1790139588.3020196,-0.00952,0.00954,-1.00192,0.00217,0.00458,-9e-05
1790139588.3020196,-0.01267,0.00769,-0.99971,0.00128,0.00533,0.00111
1790139588.509532,-0.01087,0.00835,-1.00179,0.00172,0.00663,0.00179
1790139588.509532,-0.00832,0.01454,-1.00044,0.00305,0.00493,-0.00805
1790139588.6806302,-0.01149,-0.00964,-1.00046,0.0031,-0.00187,-0.01692
1790139588.6964338,-0.01679,-0.00021,-1.00084,0.00265,0.00019,0.00585
1790139588.9216537,-0.0112,0.0041,-1.00025,0.0045,0.00484,0.00129
1790139588.9216537,-0.01272,0.02494,-1.00059,0.00282,0.00552,-0.00242
1790139589.0003252,-0.01513,0.00689,-1.00251,0.00246,0.0066,0.00233
1790139589.1295528,-0.00779,0.00975,-1.00226,0.00308,0.00309,-0.00373
1790139589.3227665,-0.00945,0.00907,-0.99931,0.00389,0.00425,0.00136
1790139589.3388093,-0.01853,0.01323,-1.00136,0.00241,0.00306,0.00682
1790139589.4515254,-0.00229,-0.01421,-1.00044,0.00425,0.00384,0.02091
1790139589.5315478,-0.01395,0.0132,-1.001,0.00146,0.00577,-0.00789
1790139589.7446036,-0.01171,0.01489,-1.0005,0.00406,0.00616,0.00304
1790139589.7446036,-0.00934,0.00538,-1.00069,0.00048,0.00509,0.00027
1790139589.9452934,-0.01044,0.00933,-1.00074,0.00481,0.00394,0.00054
1790139590.0159411,0.04747,0.11144,-1.01434,-0.00451,-0.05296,1.25056
1790139590.145747,0.01569,-0.00443,-0.98843,0.01,0.01647,1.38882
1790139590.3538725,0.02443,0.01443,-0.98182,-0.00152,0.03295,1.44126
1790139590.3538725,0.01224,0.02568,-1.00607,0.01597,-0.01219,1.49388
1790139590.5484838,0.01364,0.00226,-1.00093,-0.05223,0.03032,1.49003
1790139590.5484838,-0.0105,-0.04135,-1.00367,-0.01115,-0.00364,1.5967
1790139590.7605555,0.02969,-0.01349,-0.97,0.01119,0.00851,1.56261
1790139590.7767584,0.00584,0.002,-0.95603,0.09984,0.01848,1.55783
1790139590.9667869,0.01467,0.0001,-1.02061,0.0112,-0.04135,1.52118
1790139590.9809911,-0.00104,0.02521,-0.99584,0.01766,0.00376,0.50924
1790139591.1747875,0.00587,0.08505,-0.99944,0.00053,0.01176,0.06027
1790139591.1747875,-0.01563,-0.00346,-1.00323,0.00717,0.0042,-0.0006
1790139591.3690457,-0.0134,0.00965,-1.00131,0.00481,0.00764,0.00299
1790139591.5787296,-0.00926,0.01177,-1.00151,0.0009,0.00576,0.00133
1790139591.5787296,-0.00571,0.01007,-1.00177,0.00359,0.00554,0.00203
1790139591.7843323,-0.00882,0.01064,-0.99948,0.00458,0.00567,0.002
1790139591.7843323,-0.01042,0.01137,-0.9996,0.00392,0.00572,-0.00143
1790139591.8001852,-0.00627,-0.00618,-1.00128,0.00838,0.00616,0.01624
1790139591.9943593,-0.00675,0.01621,-1.00026,0.00318,0.00491,-0.01237
1790139591.9943593,-0.01184,0.00946,-1.0,0.00332,0.00494,0.00073
1790139592.1849852,-0.02175,0.01361,-1.00236,0.00375,0.00061,-0.00653
1790139592.2519333,-0.00769,-0.01548,-1.00134,0.00313,0.0102,0.0231
1790139592.3153925,0.15942,-0.00803,-1.00023,0.01163,0.02084,0.01142
1790139592.4318807,0.23646,0.02692,-1.01353,0.0208,-0.02712,-0.03036
1790139592.5664494,0.03551,0.04327,-0.958,0.02333,0.00119,-0.02355
1790139592.6354358,-0.15979,-0.00374,-1.02943,0.02004,-0.02918,0.00906
1790139592.752383,-0.10726,-0.02315,-0.99886,-0.03978,0.01747,0.05004
1790139592.811445,0.03311,-0.01148,-1.00308,-0.01447,0.00605,0.01719
1790139592.9548683,0.07423,0.00911,-1.01087,0.00206,-0.00273,0.02999
1790139593.0192685,-0.00479,0.02132,-0.97338,0.0016,0.05142,-0.014
1790139593.1958137,-0.06934,0.0152,-0.98068,0.00945,0.02019,0.00198
1790139593.2702568,-0.04672,0.01348,-1.00891,0.00246,0.0291,-0.0047
1790139593.3406625,0.03665,0.00999,-1.00778,0.00946,0.01587,-0.01486
1790139593.524205,0.02914,0.01238,-1.00579,0.0242,-0.0053,-0.02491
1790139593.5339031,-0.04802,-0.02869,-1.00617,-0.0349,-0.0058,0.0626
1790139593.6465166,-0.01821,0.02587,-0.98141,-0.0233,0.01847,-0.03556
1790139593.7750132,-0.00074,0.03585,-0.99421,-0.00286,0.02023,-0.0106
1790139593.8386776,0.01881,0.02118,-0.99765,0.00351,0.01406,-0.00139
1790139593.9739566,0.01789,0.01539,-1.00035,-0.01129,-0.00366,-0.02836
1790139594.0497284,-0.02532,0.01301,-0.9977,-0.01067,-0.0078,0.00792
1790139594.1613185,-0.04311,-0.00174,-1.03201,0.00807,0.01761,0.02951
1790139594.2412965,0.00337,0.0235,-0.97334,0.03175,0.04275,0.0113
1790139594.3546424,-0.01714,0.00754,-0.97306,0.01546,0.03133,0.00158
1790139594.4511058,-0.28161,-0.03733,-0.96344,-0.0222,0.02142,0.08885
1790139594.6459181,-0.15737,0.02241,-0.99758,0.01918,0.00671,0.02529
1790139594.8502154,0.05283,0.06219,-0.99938,-0.00461,-0.00376,-0.02983
1790139594.9632428,-0.00855,0.01312,-1.00155,0.00137,0.00292,-0.01069
1790139595.0780709,-0.01403,-0.00112,-1.00003,-0.00142,0.00501,0.00329
1790139595.186871,-0.01095,0.00544,-1.00001,0.00055,0.00828,0.0124
1790139595.2783237,-0.01014,0.0006,-0.99894,0.00357,0.00537,0.02064
1790139595.445334,-0.00407,0.01684,-1.00038,0.00149,0.00456,0.00523
1790139595.4614382,-0.00373,0.02401,-0.99925,0.0046,0.00348,-0.00829
1790139595.6818306,0.00609,0.03451,-0.99969,0.0054,0.00447,-0.03956
1790139595.8819299,-0.01212,0.00713,-0.99928,0.00042,0.00503,0.01376
1790139596.0872433,-0.00695,0.00488,-1.00162,0.00218,0.00475,0.00122
1790139596.2658415,-0.02297,-0.03082,-1.0012,0.0031,0.00745,0.03368
1790139596.2779412,-0.01124,0.00683,-1.0022,0.00412,0.00068,0.01883
1790139596.499649,-0.00458,0.02545,-1.00141,0.00369,0.00754,0.00272
1790139596.6905408,-0.00382,0.01244,-0.99993,0.0036,0.00798,0.00107
1790139596.9005911,-0.00915,0.00781,-1.00189,0.00018,0.00198,-0.00033
1790139596.9005911,-0.00791,-0.00011,-0.99949,-0.0008,0.00586,0.03609
1790139597.0848005,-0.03155,-0.01418,-0.99813,0.00647,0.00108,0.03544
1790139597.3177624,-0.01717,0.01022,-1.00335,0.004,0.00573,-0.00537
1790139597.3982108,-0.00692,0.01262,-0.99852,0.00085,0.00855,0.00198
1790139597.5168748,-0.00735,0.00815,-0.99886,0.0032,0.00518,0.00719
1790139597.735029,-0.00309,0.01981,-1.00134,0.003,0.00513,-0.00698
1790139597.9321377,-0.00765,0.01425,-1.00274,-0.00119,0.00307,-0.00749
1790139598.1224592,-0.01183,-0.00103,-1.00205,0.00548,0.00522,0.01603
1790139598.3366256,-0.00912,0.00159,-0.99994,0.00308,-0.00124,0.0187
1790139598.486316,-0.00115,0.02706,-1.00135,0.00283,0.00278,-0.01623
1790139598.557834,-0.00177,0.02805,-1.00107,0.00404,0.00543,-0.02269
1790139598.7524376,-0.00271,0.01707,-0.99997,0.00228,0.00501,-0.01386
1790139598.7524376,-0.00898,0.00944,-1.00094,0.00614,0.00114,0.01369
1790139598.9257286,-0.00814,-0.01188,-0.99774,0.00108,0.00994,0.02308
1790139598.9417322,-0.00304,0.01203,-1.00081,0.00371,0.00298,-0.00118
1790139599.1185164,-0.0096,0.01288,-1.00147,0.0046,0.01039,-0.00339
1790139599.1343603,-0.00814,0.01165,-1.00068,0.00221,0.00342,0.00182
1790139599.3756998,-0.01182,0.00181,-1.00031,0.00107,0.00314,0.01891
1790139599.56944,-0.00769,0.00886,-1.00008,0.00215,0.00839,0.01118
1790139599.56944,-0.00315,0.04417,-1.0005,0.00219,-0.00101,-0.04668
1790139599.7048206,-0.01324,-0.00457,-0.99836,0.00593,0.00449,0.04018
1790139599.7619371,-0.00973,0.00505,-1.0027,-0.00025,0.00785,0.00931
1790139599.97483,-0.00277,0.02825,-1.00118,0.00564,0.00575,-0.01792
1790139600.1304781,-0.0042,0.01185,-1.00111,0.00098,0.00419,-0.01072
1790139600.182435,-0.17664,-0.44397,-1.02067,-0.02881,-0.04805,1.438
1790139600.384005,-0.00544,-0.02376,-1.01081,-0.00936,-0.01343,1.26301
1790139600.384005,0.01963,0.04438,-0.98983,0.02008,0.00166,1.35677
1790139600.5839016,0.03913,0.02858,-1.00455,0.03136,-0.02544,1.42224
1790139600.7928483,0.00317,-0.04583,-0.98871,-0.01473,0.0391,1.57068
1790139600.7928483,0.03454,-0.00546,-1.01607,-0.01035,-0.00659,1.5879
1790139601.006293,0.0226,0.02244,-0.99372,-0.0196,-0.01723,1.55093
1790139601.132142,0.02923,-0.0294,-0.98733,0.06572,0.02767,1.51407
1790139601.1965566,0.06015,0.20922,-0.97008,0.04117,0.00277,0.74162
1790139601.4030252,0.01771,0.05304,-0.99704,0.01001,0.00573,0.30986
1790139601.4188793,-0.00136,0.04974,-0.99988,0.0128,0.0135,-0.02123
1790139601.618023,-0.00428,0.0142,-1.00304,0.00971,0.00419,0.00031
1790139601.618023,-0.00352,0.00951,-1.00047,0.00688,0.00888,-0.00037
1790139601.798217,-0.00584,0.00679,-1.00039,0.00593,0.00307,0.00016
1790139601.8174188,-0.00255,0.0091,-1.00159,0.00408,0.00477,-0.00206
1790139602.0184572,-0.00412,0.00645,-1.00015,0.00422,0.00394,0.00063
1790139602.142069,-0.01302,-0.00098,-0.99944,0.00465,0.00635,0.01233
1790139602.158066,-0.0027,0.0143,-0.99978,0.00414,0.00894,-0.00604
1790139602.427111,-0.0038,0.00067,-1.00194,0.00254,0.00753,0.0039
1790139602.4431221,-0.00849,-0.00141,-1.00027,0.0032,0.01742,0.0327
1790139602.5545492,0.0106,0.00695,-0.99942,0.00131,0.01044,-0.01319
1790139602.5813255,-0.00553,-0.01662,-1.00046,0.00292,0.00599,0.02196
1790139602.695983,-0.00434,0.01271,-1.00029,0.00349,0.00197,-0.00381
1790139602.8072777,0.2022,-0.0017,-0.99677,0.00811,0.0394,0.00469
1790139602.8709226,0.20422,-0.01302,-1.01791,0.0235,-0.02427,0.00633
1790139603.0197754,-0.00313,-0.03984,-0.98718,0.01947,-0.10072,0.06002
1790139603.1406646,-0.11097,0.04115,-0.99762,0.00898,0.01166,-0.04307
1790139603.1881065,-0.08458,0.00079,-1.00902,0.01251,-0.00336,0.01868
1790139603.3792887,0.04234,0.03822,-1.0032,0.01729,0.0034,-0.03194
1790139603.3953907,0.07149,0.02579,-1.00621,0.00688,-0.01036,-0.04075
1790139603.5224462,-0.0198,-0.01572,-0.99866,-0.0052,-0.01035,0.03713
1790139603.7059982,-0.00346,0.02932,-0.98895,0.0154,0.00389,-0.03371
1790139603.7600965,0.05045,0.01164,-0.99105,0.0298,-0.04161,-0.00902
1790139603.8388536,0.00958,0.0106,-1.01303,0.02352,0.00989,0.00414
1790139603.9501235,-0.04037,0.0077,-1.02177,0.00287,-0.02131,-0.00281
1790139604.073611,-0.0305,-0.01156,-1.0134,-0.00505,0.00109,0.0459
1790139604.1405363,-0.03182,-0.03476,-0.9871,-0.01362,0.03372,0.06942
1790139604.2219281,0.03157,0.02734,-0.99513,-0.00858,0.00614,-0.03267
1790139604.3310394,-0.00743,-0.00356,-1.0007,-0.00019,0.01416,0.02379
1790139604.4578683,-0.02896,0.00725,-1.0302,-0.00843,-0.0378,-0.02301
1790139604.541173,-0.02377,0.02885,-1.00311,0.02612,-0.00091,-0.03024
1790139604.695859,-0.01432,-0.00087,-1.01695,0.01469,-0.02608,-0.01378
1790139604.9046981,-0.11897,0.01036,-1.00226,0.01125,-0.03622,0.02347
1790139604.9046981,-0.26075,0.00339,-1.00678,-0.00568,0.00108,0.06987
1790139605.0967994,-0.0473,-0.0834,-1.0093,0.00302,0.02413,-0.03527
1790139605.0967994,0.05681,0.04349,-0.99983,-0.00015,0.00089,-0.00914
1790139605.1416874,0.00599,0.01609,-0.99943,0.00585,0.00623,0.00312
1790139605.300623,-0.00955,0.00564,-0.99987,0.00282,0.00611,0.00248
1790139605.5012715,-0.01185,0.00663,-0.99891,0.00045,0.00634,0.00196
1790139605.517211,0.00922,-0.00459,-1.0004,0.00352,0.00698,0.02745
1790139605.533062,0.00287,0.00913,-1.00018,0.00475,0.00824,-0.00609
1790139605.7083712,-0.00996,0.00295,-1.00101,0.00528,0.00828,0.003
1790139605.883265,-0.01091,0.00188,-1.00019,0.00564,0.00521,0.00591
1790139605.8992581,-0.00962,0.00992,-0.99859,0.00368,0.0067,-0.00031
1790139605.9467597,-0.00778,0.00647,-1.00041,0.00324,0.00345,-0.00102
1790139606.1255708,-0.01412,7e-05,-1.0012,0.00609,0.00806,0.01019
1790139606.1845057,-0.0092,0.01015,-0.99921,0.00536,0.0047,-0.00179
1790139606.311818,-0.00628,0.00581,-1.0002,0.00108,0.0044,0.00071
1790139606.5338979,-0.00836,0.00816,-1.00008,0.00187,0.00319,-0.0016
1790139606.5338979,-0.01083,0.00601,-0.99861,0.00116,0.00772,-0.00145
1790139606.7072866,-0.00213,0.02641,-1.0008,0.00712,0.00268,-0.04249
1790139606.7072866,-0.0168,-0.0206,-0.99973,0.00622,0.00357,0.01921
1790139606.943685,-0.01237,-0.00145,-1.00066,0.00305,0.00406,0.00785
1790139607.0542803,-0.01135,0.00209,-1.00021,0.00216,0.00727,-0.00228
1790139607.1335475,-0.00851,0.00436,-1.00092,0.00278,0.00542,0.00508
1790139607.1972458,-0.01135,0.00591,-1.00044,0.00421,0.00348,-0.00042
1790139607.340098,-0.00877,0.00916,-0.99835,0.00354,0.00291,-0.00286
1790139607.5138426,9e-05,0.0102,-0.99987,0.00244,0.00658,-0.02121
1790139607.5138426,-0.01869,-0.01587,-1.00101,0.00516,0.00299,0.02525
1790139607.7635283,-0.00643,0.00979,-1.00191,0.00145,0.0017,-0.00178
1790139607.7679498,0.00175,0.01844,-0.99948,0.00047,0.00617,-0.01779
1790139607.7808373,-0.01523,0.00293,-1.00098,0.00317,0.00573,0.00887
1790139607.9723172,-0.00424,0.00895,-1.00042,0.00388,0.0046,-7e-05
1790139607.9723172,-0.00827,0.00768,-1.00015,0.00281,0.00324,0.00091
1790139608.1787767,-0.00932,0.00631,-0.99931,0.00579,0.00681,-0.00138
1790139608.2104652,-0.00936,0.00481,-0.99995,0.00424,0.00403,3e-05
1790139608.368465,-0.00725,0.00885,-0.99947,0.00116,0.00709,-0.00386
1790139608.5754614,-0.00761,0.00496,-1.00057,0.00377,0.00639,-0.00012
1790139608.5754614,-0.01013,0.00732,-0.99927,0.0032,0.0039,0.00042
1790139608.7814116,-0.0077,0.0069,-1.00117,-0.00037,0.0045,0.00256
1790139608.9869025,-0.01059,0.0077,-1.00038,0.00488,0.00574,0.00073
1790139608.9869025,-0.00804,0.00543,-1.00029,0.00109,0.00629,0.00122
1790139609.1931958,-0.00828,0.00626,-1.00002,0.00541,0.00474,-0.00108
1790139609.1931958,-0.015,0.02118,-1.00047,0.00055,0.00141,-0.00207
1790139609.2305555,-0.01025,0.01725,-0.99926,0.00344,0.00686,-0.00493
1790139609.3674505,-0.01116,-0.00314,-1.0006,0.00721,0.00395,0.01473
1790139609.6048775,-0.00603,0.01108,-1.00121,0.00484,0.00295,-0.0095
1790139609.6048775,-0.00604,0.00969,-0.99935,0.00335,0.0025,0.00204
1790139609.6214118,-0.01179,0.00347,-1.00009,0.00022,0.00654,0.00224
1790139609.8106883,-0.00894,0.00471,-1.0003,0.00276,0.00382,-0.00133
1790139610.017187,-0.01933,0.01409,-1.00059,0.00377,0.00435,-0.00521
1790139610.1434917,-0.01329,0.00605,-1.0013,0.003,0.00438,0.00475
1790139610.2238405,-0.00997,0.01069,-1.00127,0.00279,0.0051,-0.00426
1790139610.4147646,-0.00938,0.00794,-1.00108,0.00183,0.00492,0.00011
1790139610.4512146,-0.00728,0.00553,-1.00099,0.00178,0.00566,0.00061
1790139610.6256151,-0.01291,0.0048,-1.00193,-0.00013,0.00362,0.0031
1790139610.638217,0.01777,0.04121,-1.02111,0.00135,-0.0143,1.30567
1790139610.833717,0.03085,-0.03569,-1.0079,0.04501,-0.03134,1.43733
1790139611.0380998,0.03348,0.02671,-1.01904,-0.05262,-0.0161,1.47477
1790139611.0380998,0.01601,0.00965,-0.98124,0.01722,0.01425,1.54542
1790139611.2419298,0.03039,-0.00726,-1.03115,-0.03391,-0.00145,1.56178
1790139611.448915,0.02064,-0.01405,-1.00278,0.03027,-0.02621,1.57583
1790139611.6464472,0.03185,0.0252,-0.99269,-0.02201,-0.00418,1.55344
1790139611.6558552,0.01149,0.00296,-0.95544,0.01168,0.00522,1.56729
1790139611.847273,0.01287,-0.00167,-1.04329,0.01698,-0.02283,1.53201
1790139611.8654475,0.00567,-0.00243,-1.01141,0.01361,0.00393,1.57463
1790139612.005823,0.0114,-0.01833,-0.99699,0.02238,-0.00314,1.61124
1790139612.0532107,0.01522,0.00721,-0.9916,0.0085,-0.00323,1.60691
1790139612.2435808,0.01503,0.01683,-0.98873,0.03752,0.03491,1.55635
1790139612.467669,0.01054,-0.01343,-1.01933,-0.00597,-0.03974,1.57126
1790139612.672587,0.04374,0.05469,-0.96295,-0.02158,0.00256,1.42703
1790139612.672587,-0.00545,0.03064,-1.00104,0.01005,0.00191,0.58175
1790139612.780128,0.00699,0.06263,-0.99955,-0.01057,0.00631,0.02148
1790139612.8794298,-0.0079,0.01765,-0.998,0.00302,0.0094,0.01102
1790139612.9989796,-0.01024,0.01827,-0.99965,0.00513,0.00654,-0.00248
1790139613.0857246,-0.01199,0.01182,-1.0013,0.0027,0.00618,0.00095
1790139613.2612786,0.00106,0.02233,-1.00115,0.00752,0.00493,-0.00729
1790139613.5018702,-0.01245,0.01384,-1.00116,0.00293,0.00594,-0.00184
1790139613.6951172,-0.00937,0.01223,-1.00128,0.0014,0.00623,0.00017
1790139613.9030287,-0.00932,0.01127,-0.99944,0.00409,0.00655,-0.00083
1790139614.1056998,-0.0074,0.01356,-1.00189,0.00662,0.00455,0.00094
1790139614.2497404,-0.00044,0.02132,-0.99909,0.00229,0.01366,-0.00625
1790139614.2654474,-0.01258,0.00305,-1.00017,0.00195,0.0028,0.00681
1790139614.3611941,0.03061,0.01545,-0.99762,0.00739,0.02142,0.0013
1790139614.5205793,0.24221,0.00895,-1.00112,0.01698,0.00134,-0.04761
1790139614.6663065,0.14842,0.0161,-1.04162,0.01175,-0.04911,0.00456
1790139614.7120402,-0.07173,0.03776,-0.98865,0.01073,-0.05641,-0.01241
1790139614.8077557,-0.13379,0.02445,-1.02466,0.00835,-0.02751,-0.04475
1790139614.9347415,-0.01393,-0.02204,-1.009,0.00194,-0.00026,0.02714
1790139614.998346,0.08509,0.01207,-1.00758,-0.0007,0.00978,0.0237
1790139615.1262243,0.02948,0.01392,-0.99006,0.02683,0.02402,0.01294
1790139615.2370014,-0.06371,0.01411,-0.99804,0.01423,0.01864,-0.00062
1790139615.3362079,0.00773,0.00944,-1.005,0.0135,0.00949,-0.0084
1790139615.4283066,0.01692,0.01896,-0.99747,0.01206,0.00189,-0.01329
1790139615.4927099,0.01705,-0.00513,-1.01725,0.02794,-0.03259,0.01228
1790139615.6832304,-0.0555,-0.00982,-0.98764,0.03215,-0.01467,0.04641
1790139615.699187,-0.01314,0.04429,-0.968,-0.02144,0.00711,-0.03732
1790139615.8274138,0.01558,0.02676,-0.97696,-0.01169,0.04028,-0.00231
1790139616.0022922,0.03699,0.0284,-1.01097,0.01725,-0.0115,-0.01604
1790139616.019686,-0.00731,0.01014,-1.00872,-0.0145,0.00156,-0.02998
1790139616.1453133,-0.04146,-0.00964,-0.9958,0.00225,0.00387,0.00923
1790139616.2600913,-0.04071,-0.00025,-1.00603,0.02873,0.00712,0.01979
1790139616.3678858,-0.00727,0.01671,-0.9962,0.01766,0.00165,-0.0051
1790139616.5787458,-0.22076,-0.02072,-0.98488,-0.01074,-0.01078,0.04405
1790139616.5787458,-0.11807,0.06064,-0.99603,-0.00849,0.05424,-0.0186
1790139616.7658057,-0.0059,0.00947,-0.99851,0.00119,0.00718,-0.0092
1790139616.7658057,-0.01212,0.01623,-1.00118,0.00505,0.00631,-0.01274
1790139616.9726777,-0.01571,0.00688,-0.99993,0.00432,0.00563,-0.00272
1790139616.9836173,-0.01778,0.00388,-1.00075,0.00743,0.00367,0.00502
1790139617.17319,-0.01961,-0.00272,-1.00182,0.0068,0.00564,0.01385
1790139617.17319,-0.0114,0.00172,-1.00164,0.00167,0.00745,-0.00712
1790139617.2847207,-0.01658,0.01135,-1.00011,0.003,0.00474,0.00642
1790139617.3800962,-0.01887,-0.00596,-1.00086,0.00522,0.0058,0.01922
1790139617.5649638,-0.01661,-0.00073,-0.99918,0.005,0.00639,0.02151
1790139617.5649638,-0.01586,0.01516,-0.99884,0.00349,0.00384,0.00882
1790139617.7919738,-0.00285,0.03148,-0.99992,0.00056,0.00741,-0.0316
1790139617.7919738,-0.01249,0.03144,-0.99999,0.00815,0.00738,-0.01685
1790139617.9985251,-0.01026,0.02183,-0.9997,0.00159,0.00397,-0.02155
1790139617.9985251,-0.00911,0.01741,-0.99892,3e-05,0.00383,-0.01777
1790139618.2075403,-0.01748,-0.00397,-0.99951,-0.00335,0.00784,0.02298
1790139618.2846465,-0.02656,-0.02232,-1.00083,0.00044,0.00864,0.03828
1790139618.3799176,-0.01603,0.0158,-1.00161,0.00343,0.00741,0.00823
1790139618.611189,-0.0129,0.0283,-1.00005,0.00515,0.00213,-0.00132
1790139618.6213794,-0.0115,0.01674,-1.00091,-0.00106,0.00337,-0.02839
1790139618.8114774,-0.00808,0.02079,-0.9988,0.00538,0.00354,-0.01601
1790139618.827694,-0.01131,0.01482,-1.00039,0.00507,0.00428,-0.01575
1790139619.0205443,-0.01332,0.00994,-1.00015,0.00357,0.0055,-0.01215
1790139619.0205443,-0.01489,0.01125,-1.00143,0.003,0.00761,-0.01321
1790139619.1981893,-0.0213,0.02856,-0.99864,-0.00248,-0.0048,-0.02961
1790139619.214062,-0.01606,0.01147,-1.00056,0.00361,0.00409,-0.02449
1790139619.284397,-0.01398,0.00992,-1.00191,0.00296,0.00516,-0.00586
1790139619.4407496,-0.01031,0.00351,-1.00099,0.00629,0.00906,-0.01909
1790139619.6442826,-0.01532,0.00031,-0.99991,0.00103,0.0073,0.01544
1790139619.8398,-0.01473,0.00155,-0.99974,0.00559,0.00605,0.01758
1790139620.0472138,-0.01686,0.01047,-0.9987,0.0077,0.00497,0.01285
1790139620.0472138,-0.01353,0.0131,-0.99992,0.00444,0.00684,0.01004
1790139620.2531562,-0.01136,0.01698,-1.00181,0.00271,0.00345,0.00516
1790139620.2531562,-0.01073,0.01449,-1.00178,0.00316,0.00775,0.00628
1790139620.3043258,-0.0124,0.01581,-0.99983,0.00498,0.00656,0.00218
1790139620.4587204,-0.01236,0.01965,-1.00193,0.00472,0.005,-1e-05
1790139620.6664195,-0.01072,0.01982,-1.00059,0.00527,0.00357,-0.00027
1790139620.6664195,-0.0128,0.02252,-1.00149,0.00193,0.00325,-0.00486
1790139620.8569577,-0.01119,0.02308,-0.99967,0.00239,0.00132,-0.0079
1790139620.8729196,-0.01265,0.01808,-1.00038,0.00331,0.00185,-0.01097
1790139621.0341618,-0.01179,0.04614,-0.99901,0.00209,0.00214,-0.03901
1790139621.0664396,-0.01657,0.00706,-0.9993,0.0064,0.00189,-0.00824
1790139621.2791014,-0.01229,0.00493,-0.99967,0.00154,0.00368,-0.01307
1790139621.2791014,-0.01545,0.00116,-1.00209,0.00143,0.00595,-0.00043
1790139621.4805813,-0.01662,0.01538,-1.00058,0.00234,0.00574,-0.00047
1790139621.4857402,-0.01228,0.01085,-1.00122,0.00399,0.00205,0.0
1790139621.681469,-0.0125,0.01055,-1.00001,0.00322,0.00398,0.00034
1790139621.681469,-0.02204,0.00719,-0.99857,0.00173,0.00416,0.00225
1790139621.887769,-0.01492,0.02075,-1.00009,0.00235,0.00048,0.01708
1790139621.9037495,-0.01226,0.01408,-1.00158,0.0002,0.00705,-0.01013
1790139622.096522,-0.01197,0.02076,-0.99942,0.00262,0.00523,-0.01318
1790139622.096522,-0.01245,0.0084,-1.00076,0.00112,0.0016,-0.00398
1790139622.3039758,-0.01552,0.00745,-1.00176,0.00346,0.00589,0.00607
1790139622.3039758,-0.01378,-0.02268,-0.99966,0.00799,0.00564,0.04625
1790139622.4363315,-0.01577,0.00591,-1.00128,0.00303,0.00641,0.0197
1790139622.4841828,-0.01103,0.02034,-1.00171,0.0043,0.00651,0.0001
1790139622.5615625,0.02982,0.0203,-1.00182,0.00676,0.01388,-0.00853
1790139622.6853886,0.25824,0.0169,-1.00984,-0.00372,0.0166,-0.05381
1790139622.8019009,0.12401,-0.01202,-0.99337,0.05865,-0.02016,0.01704
1790139622.8864238,-0.09053,0.00649,-1.0282,-0.02031,-0.03498,-0.00339
1790139622.998534,-0.17575,-0.00036,-0.98607,0.00808,0.01711,0.03493
1790139623.0748823,-0.01447,0.02497,-0.98722,0.04219,0.0265,0.02203
1790139623.2065759,0.08935,0.01003,-1.00638,0.01093,0.02095,-0.00036
1790139623.2673361,0.03458,0.00647,-0.9923,0.00052,-0.00856,-0.00031
1790139623.388017,-0.05683,0.02353,-0.99592,-0.0115,0.04428,-0.01066
1790139623.4607267,-0.0605,0.00152,-1.00059,0.00595,0.03631,0.00259
1790139623.5707707,0.0113,0.01487,-1.01458,-0.02048,0.03228,0.03804
1790139623.7332156,0.03686,-0.01238,-1.0055,-0.02138,-0.00441,0.04245
1790139623.7802432,0.00204,0.01107,-1.01744,0.01633,-0.00031,-0.00894
1790139623.908233,-0.02465,0.01008,-0.98716,0.01299,0.03281,-0.00072
1790139624.020905,-0.00944,0.05447,-0.98938,0.00481,0.01715,-0.06458
1790139624.1034052,0.02322,0.0208,-0.99438,-0.01458,0.04929,-0.05166
1790139624.2282476,0.01202,-0.00319,-1.01418,-0.00042,0.01745,0.00106
1790139624.3210275,-0.00475,0.01465,-0.99178,0.00601,-0.00377,0.01503
1790139624.514563,-0.02937,-0.00078,-1.00183,0.00118,0.00105,0.03747
1790139624.765049,-0.07117,0.01893,-1.00486,0.01338,0.01117,-0.01998
1790139624.8650172,0.14123,0.02665,-1.0038,-0.00252,0.00118,0.03512
1790139624.960871,-0.15468,0.02291,-0.99548,-0.0175,0.00652,0.00921
1790139625.1678007,0.03657,0.04388,-0.99934,0.00263,-0.00284,0.00355
1790139625.3372786,-0.13503,0.01532,-0.99331,-0.00658,0.01689,0.00267
1790139625.3450043,0.11746,-0.00438,-0.99497,0.01755,0.00414,-0.00693
1790139625.5715888,-0.0778,0.03567,-1.00041,0.01747,-0.01545,-0.00693
1790139625.5715888,-0.02544,0.01431,-1.0103,-0.00173,0.01848,0.02797
1790139625.7832909,0.08025,0.03176,-1.00272,0.00375,-0.0027,-0.01332
1790139625.989102,0.03937,-0.04,-0.9947,0.0056,0.00952,0.00902
1790139625.989102,0.02648,0.05909,-1.00686,-0.00508,0.00319,0.00842
1790139626.1831756,-0.06618,0.0134,-1.00153,-0.00318,0.0034,-0.02311
1790139626.2637155,-0.05548,0.0245,-0.99991,-0.00018,0.01041,0.01538
1790139626.3515034,-0.0199,-0.00564,-1.00662,-0.0154,0.00721,0.00577
1790139626.6053474,-0.0753,-0.01642,-1.00429,-0.00989,-0.00047,-0.00194
1790139626.811799,0.01885,0.04475,-1.00214,0.00098,-0.01097,-0.00752
1790139627.007995,-0.06688,0.00912,-0.99543,0.02947,0.02878,0.02748
1790139627.213894,-0.01713,0.08952,-1.01628,0.02427,-0.00478,-0.04132
1790139627.213894,-0.00648,0.00204,-0.99558,0.00571,0.00309,0.01502
1790139627.3586535,0.02587,0.01914,-0.99906,0.00451,-0.0059,-0.03872
1790139627.374414,-0.02861,0.06617,-0.99024,-0.0244,0.00482,0.00897
1790139627.6169825,0.01615,-0.00545,-1.00179,0.00379,0.00886,-0.00225
1790139627.6169825,-0.0226,0.00125,-1.001,-0.00985,0.00264,0.0076
1790139627.8257084,-0.01824,0.00867,-0.99283,0.02411,-0.00249,-0.00049
1790139627.8257084,0.03726,0.00168,-1.00755,-0.007,0.00289,0.02291
1790139628.0325925,-0.05227,0.01805,-1.00214,0.00221,-0.01687,0.01325
1790139628.0325925,0.01315,0.02894,-1.00331,-0.00046,0.00333,0.02929
1790139628.2388303,0.02767,0.01689,-1.00281,0.00317,-0.00384,0.01065
1790139628.2388303,-0.05891,0.05491,-1.00624,-0.00046,0.01052,-0.06355
1790139628.365797,0.05178,-0.00295,-0.99996,-0.01261,0.0019,0.05683
1790139628.3838763,-0.00654,0.02284,-1.00502,0.01846,-0.00206,-0.0993
1790139628.5406528,-0.03308,0.03011,-0.9997,-0.00678,-0.00642,0.04236
1790139628.6517131,0.04171,0.00105,-1.0007,0.00699,0.00069,-0.03073
1790139628.8441846,-0.03986,0.05256,-1.00585,-0.00026,0.00362,-0.03212
1790139628.859929,0.02313,-0.01537,-0.99007,0.02103,0.029,0.01164
1790139628.957075,0.02787,0.00676,-1.00711,0.00586,-0.00912,-0.00024
1790139629.0535238,-0.00209,0.00957,-1.00029,0.00753,0.00372,0.00209
1790139629.1959336,-0.01014,0.014,-1.00089,0.00446,0.00336,-0.00295
1790139629.1959336,-0.01503,0.00825,-1.0009,0.00494,0.00446,0.00044
1790139629.3686104,-0.01264,0.01145,-0.99989,0.00357,0.00388,-0.00124
1790139629.4327478,-0.01245,0.00761,-0.99823,0.00526,0.00497,0.00183
1790139629.6740599,-0.02266,0.01062,-0.99965,0.00218,0.0045,0.00439
1790139629.721942,-0.02266,0.01062,-0.99965,0.00218,0.0045,0.00439
1790139629.883114,-0.02103,0.01128,-0.99997,0.00282,0.00649,6e-05
1790139630.0810938,-0.01187,0.00949,-1.00055,0.00457,0.00535,0.00135
1790139630.0916178,-0.01013,0.00966,-0.99875,0.00482,0.00708,-0.00351
1790139630.267655,-0.02101,-0.01596,-1.00133,0.00401,0.00531,0.00386
1790139630.2837653,-0.02099,-0.0044,-1.00088,0.00265,0.00656,0.02055
1790139630.3800814,-0.01113,0.0099,-0.99975,0.00272,0.00548,-0.00056
1790139630.4768014,-0.0165,0.01377,-0.99905,0.00226,0.00249,-0.00813
1790139630.699334,-0.01335,0.0111,-1.0005,0.00241,0.00506,0.006
1790139630.699334,-0.01356,0.00891,-1.00083,0.00202,0.00785,-0.00328
1790139630.900547,-0.01573,0.00945,-0.99945,0.00304,0.00634,0.0036
1790139630.900547,-0.01581,0.00767,-1.00035,0.00354,0.0016,0.00968
1790139631.074396,-0.03313,0.00085,-1.00004,0.00198,0.00575,0.02732
1790139631.3111758,-0.0101,0.01468,-0.99912,0.0023,0.00515,-0.00282
1790139631.3111758,-0.02849,0.01092,-1.00144,-0.00044,0.00523,0.00913
1790139631.3277678,-0.01672,0.00836,-1.00053,0.00095,0.00551,-0.00093
1790139631.5196493,-0.01023,0.01592,-1.00006,0.00166,0.00474,-0.00178
1790139631.5196493,-0.01339,0.01191,-0.9996,0.00379,0.00507,-0.00223
1790139631.7123494,-0.01446,0.00916,-1.00181,0.00181,0.00235,0.00179
1790139631.72834,-0.01307,0.00823,-0.99999,0.00014,0.00826,0.00291
1790139631.922631,-0.01563,0.01125,-0.99974,0.00317,0.00583,0.00158
1790139632.1359704,-0.0148,0.01456,-1.00106,-0.0004,0.00741,-0.00137
1790139632.1478345,-0.01282,0.01094,-1.00058,0.00346,0.00339,-0.00054
1790139632.3409264,-0.015,0.01188,-0.99892,0.00642,0.00476,0.00064
1790139632.3409264,-0.01251,0.00908,-1.00186,0.00433,0.00541,0.00248
1790139632.538098,-0.01421,0.01278,-1.00113,0.00191,0.00567,-0.00114
1790139632.7434068,-0.01298,0.01205,-1.00003,0.00353,0.00437,-0.00225
1790139632.9205823,-0.01774,0.00723,-1.00042,0.00673,0.00639,0.02822
1790139632.9205823,-0.0106,-0.00521,-1.00105,0.00418,0.01354,0.00969
1790139633.146902,-0.00884,0.01697,-0.99983,0.00082,0.0035,-0.01053
1790139633.1630106,-0.01939,-0.00192,-1.00228,0.00105,0.00711,0.00839
1790139633.1630106,-0.01564,0.01125,-1.00086,0.0034,0.00751,0.00248
1790139633.3647537,-0.012,0.01224,-0.99993,0.00489,0.00518,-0.00169
1790139633.3687081,-0.01348,0.01145,-0.9992,0.00477,0.00442,-0.0034
1790139633.562538,-0.01531,0.01275,-1.00012,-0.0003,0.004,-0.00175
1790139633.7682102,-0.0161,-0.01038,-0.99949,0.00091,0.01055,0.02975
1790139633.7682102,-0.0175,0.00776,-1.00211,0.00196,0.00488,0.00486
1790139633.9745383,-0.01275,0.01945,-0.99943,0.00257,0.00659,-0.0058
1790139633.9745383,-0.00975,0.01077,-0.99983,0.00184,0.00526,-0.0044
1790139634.175391,-0.01635,0.00958,-1.00069,0.00312,0.00641,0.00213
1790139634.285894,-0.01522,0.00102,-1.00061,0.00329,0.00298,0.00205
1790139634.415115,-0.01783,0.00468,-1.00398,0.00349,0.00376,0.00561
1790139634.4771228,0.09818,0.01211,-0.98996,0.00689,0.03126,-0.00505
1790139634.6048884,0.2188,0.02694,-1.00235,0.01977,0.06538,-0.05137
1790139634.685087,0.07136,-0.00079,-0.98619,0.00601,0.01612,0.0403
1790139634.7989843,-0.10836,0.02157,-1.01521,0.0108,0.02262,0.00166
1790139634.8790727,-0.09753,0.04562,-0.99426,-0.01707,0.00826,-0.01165
1790139635.055669,0.01346,0.01577,-0.98761,0.05006,0.04103,-0.00539
1790139635.12948,0.05821,0.00141,-0.99766,0.03146,0.04003,0.00628
1790139635.2560704,0.01981,0.01544,-1.00334,0.03239,0.03501,0.01894
1790139635.3095927,-0.0469,0.0113,-1.00782,-0.00903,0.0257,0.02847
1790139635.3890352,-0.02839,0.03269,-1.00621,-0.0086,-0.01215,-0.02306
1790139635.5660245,0.03099,0.01781,-1.0155,-0.00941,-0.01196,-0.03036
1790139635.5819182,0.03346,0.00216,-1.01059,0.02227,0.00787,0.00849
1790139635.7089963,-0.00226,0.0452,-0.97608,0.02635,-0.00557,-0.04992
1790139635.8213053,-0.02641,-0.00793,-0.97978,-0.01032,0.02587,0.04855
1790139635.9033191,-0.01769,-0.00266,-1.00201,-0.00263,0.00314,-0.00718
1790139636.0493066,0.02006,0.02039,-0.99521,-0.0039,-0.00808,-0.01414
1790139636.2306159,-0.25042,0.01668,-1.0014,0.0075,0.02458,0.08077
1790139636.324709,-0.0076,-0.03506,-1.01031,-0.01155,0.00823,0.04331
1790139636.4476814,-0.03497,-0.00223,-1.00457,0.00018,-0.0071,0.03069
1790139636.634382,0.20102,0.03218,-1.00323,0.00129,0.00138,-0.01153
1790139636.8411415,-0.19379,0.01947,-0.9974,0.00567,0.00158,0.02747
1790139637.0501666,-0.13217,0.03292,-0.99788,0.00771,0.01618,-0.02743
1790139637.2585998,-0.04495,0.0484,-0.99828,-0.00075,-0.01258,-0.03145
1790139637.4595165,-0.0672,-0.0028,-0.98011,0.0511,0.06116,-0.03815
1790139637.6630807,-0.12441,0.01693,-1.00777,-0.00501,0.00351,-0.03625
1790139637.8606837,-0.10511,-0.00227,-1.00559,-0.00253,0.00759,-0.03963
1790139638.0642831,0.1113,0.0516,-1.01113,0.00092,0.01799,-0.03852
1790139638.0800254,-0.04798,0.02309,-0.99811,-0.00557,0.008,-0.01959
1790139638.2740796,-0.02676,-0.009,-0.9974,0.01406,0.02143,-0.00494
1790139638.4825318,-0.10106,0.02126,-0.98164,0.05369,0.04216,-0.0264
1790139638.6440587,-0.02596,-0.00688,-1.00416,0.00251,-0.00779,0.10622
1790139638.6440587,-0.08221,-0.01865,-0.99796,0.00277,-0.00846,-0.04309
1790139638.8864799,0.08661,0.003,-0.99772,0.00341,0.0085,-0.04589
1790139638.8864799,-0.04684,0.00631,-0.99719,0.01802,-0.00569,0.01721
1790139639.0489113,-0.00503,0.00597,-0.99867,-0.01995,-0.00107,-0.01624
1790139639.0489113,0.04792,0.02171,-1.01172,-0.0008,-0.01649,-0.03633
1790139639.3057518,0.03522,0.01248,-1.00218,-0.01326,-0.00181,-0.03948
1790139639.4830766,0.00799,0.05354,-1.01527,-0.01575,-0.00203,-0.03805
1790139639.70514,0.11531,0.02443,-1.00361,0.00195,-0.00278,0.01934
1790139639.8023372,-0.00447,-0.00135,-1.00003,0.00222,0.00361,0.00638
1790139639.9276476,-0.00672,0.01723,-0.99937,0.00448,0.00706,-0.00266
1790139640.1228442,-0.01477,0.00572,-1.00226,0.00086,0.00513,0.00185
1790139640.233675,-0.01278,0.009,-0.99957,0.00558,0.00519,-0.00227
1790139640.3141804,-0.0122,0.01245,-1.00056,0.00251,0.0038,7e-05
1790139640.4274921,-0.0152,0.00975,-1.00198,0.00345,0.00807,0.00185
1790139640.4763336,-0.01413,0.01019,-1.00061,0.00159,0.00526,0.00169
1790139640.5723917,-0.01023,-0.00223,-1.00187,0.00316,0.00095,0.00368
1790139640.7324822,-0.02249,0.0119,-1.00205,0.00391,0.00519,0.00802
1790139640.9411714,-0.01264,0.01142,-1.0005,-0.00072,0.00142,0.00104
1790139640.9411714,-0.01017,0.01022,-0.99946,0.00225,0.00517,0.00088
1790139641.1181445,-0.01272,0.0078,-0.99954,0.0044,0.00618,-0.00013
1790139641.3438318,-0.00978,0.01134,-1.00164,-0.0009,0.00146,-0.02882
1790139641.4900885,-0.01727,-0.00409,-1.00258,0.00038,0.00025,0.00682
1790139641.506204,-0.01185,0.01317,-0.99951,0.00311,0.00664,-0.00221
1790139641.7646353,-0.01436,0.0129,-1.00114,0.0019,0.00456,-0.00186
1790139641.7646353,-0.01354,0.00618,-1.00059,0.00489,0.00363,0.00046
1790139641.941463,0.00035,0.02712,-1.00136,-0.00127,0.01034,-0.00477
1790139641.959616,-0.01393,0.0148,-0.9993,0.00434,0.00356,0.00383
1790139642.1654873,-0.00908,-0.00268,-1.00131,0.00433,0.00119,0.01532
1790139642.1654873,-0.02446,0.00297,-1.00274,0.00115,0.00343,0.00945
1790139642.375198,-0.01439,0.01116,-1.00096,0.00309,0.00558,0.00474
1790139642.375198,-0.01106,0.00805,-1.00047,0.00562,0.00545,0.00204
1790139642.5038366,-0.0151,0.01002,-1.00148,0.00235,0.00585,-0.00015
1790139642.5236998,-0.01593,0.00825,-1.00119,0.0041,0.00613,0.00331
1790139642.784671,-0.01192,0.01248,-1.00006,0.00038,0.00662,-0.00237
1790139642.9886801,-0.01349,0.01237,-0.99858,0.00623,0.00358,0.00076
1790139643.1962533,-0.01288,0.01401,-1.00039,0.00587,0.00319,0.00134
1790139643.199163,-0.01419,0.01053,-1.00065,0.00408,0.00511,0.00303
1790139643.3908534,-0.01489,0.00847,-0.9994,0.0016,0.00115,0.00012
1790139643.524733,-0.01216,0.01102,-1.0024,0.00369,0.00885,-0.0016
1790139643.524733,-0.01459,0.01536,-1.00189,0.00294,0.00369,-0.00339
1790139643.775592,-0.02052,-0.00954,-1.00082,0.00343,-0.00138,-0.00138
1790139643.775592,-0.00908,0.02809,-1.00011,0.00401,0.00363,-0.01919
1790139644.0074403,-0.01426,0.01153,-1.00001,0.00392,0.00782,-0.00126
1790139644.2054534,-0.01427,0.00863,-1.00089,0.00189,0.00843,0.00031
1790139644.2213619,-0.01177,0.01128,-1.00004,0.00223,0.00412,0.00018
1790139644.228918,-0.01154,0.00983,-1.00278,0.00446,0.00773,0.0005
1790139644.4276934,-0.01724,0.01801,-0.99947,0.00234,0.00703,-0.0103
1790139644.5228922,-0.01246,-0.03226,-1.00119,0.00355,0.00437,0.03661
1790139644.6185696,-0.01651,0.00826,-1.00049,0.00024,0.01,0.01189
1790139644.730019,-0.01107,0.03,-1.00107,0.00419,0.00626,-0.01193
1790139644.730019,-0.01241,0.00871,-1.00012,0.00372,0.00599,-0.00663
1790139644.8606896,-0.01305,0.00963,-1.00098,0.00335,0.00685,0.00547
1790139645.0364118,-0.01782,0.00385,-1.00153,0.00774,0.00661,0.0261
1790139645.0364118,-0.01633,-0.00771,-0.99974,0.00665,0.00887,0.01983
1790139645.1701024,-0.0107,0.02694,-0.99974,0.00066,0.00594,-0.00792
1790139645.2783346,-0.01069,0.01104,-1.00143,0.004,0.00603,-0.00763
1790139645.4094968,0.21169,0.02512,-1.00377,-0.00332,0.0521,0.00232
1790139645.485256,0.19851,0.04438,-1.03397,-0.05877,-0.01182,-0.05771
1790139645.6032617,-0.01164,0.02835,-0.98909,0.06447,0.00588,-0.03967
1790139645.6684387,-0.16165,-0.01511,-1.00381,0.00254,0.02001,0.04717
1790139645.8042345,-0.04785,0.02762,-0.98513,-0.0173,0.03287,-0.03598
1790139645.8721218,0.07327,0.00107,-1.00603,0.00287,0.02744,-0.06645
1790139646.0632408,0.07492,0.01457,-1.01395,-0.01798,0.00656,-0.03146
1790139646.0632408,-0.02887,-0.00062,-1.01104,-0.00494,-0.01192,-0.00717
1790139646.1912823,-0.0599,0.01318,-0.99487,0.00155,0.0251,0.00326
1790139646.3680046,-0.00518,0.01795,-0.99756,-0.0171,0.03534,-0.01204
1790139646.3841257,0.0311,0.02357,-1.00234,-0.00882,0.03987,-0.00091
1790139646.5134597,0.02062,0.01471,-1.01597,-0.0178,0.00537,-0.00918
1790139646.6265166,-0.04428,-0.01397,-1.02323,0.00741,0.00565,0.04701
1790139646.7117739,-0.01839,0.0139,-0.985,-0.01558,0.01785,-0.01645
1790139646.8195543,0.00124,0.00879,-1.02044,-0.01434,0.00208,0.01429
1790139647.0835457,-0.0318,0.01212,-1.00064,-0.01231,-0.00261,0.03009
1790139647.1307566,-0.16744,-0.00353,-0.99789,0.00286,0.02317,0.06617
1790139647.2822573,0.10708,0.02303,-0.99954,-0.00019,0.04239,-0.02944
1790139647.4899092,0.012,0.01842,-1.00608,-0.00394,0.03098,0.04646
1790139647.5701606,0.06264,5e-05,-1.00115,0.00456,-0.00212,0.03407
1790139647.6988368,-0.1374,0.02162,-1.00431,0.00839,0.01154,-0.05895
1790139647.8926694,0.1087,-0.00215,-0.99897,0.00146,-0.01159,-0.00797
1790139647.9118538,-0.0751,0.01044,-1.00193,0.00038,0.00494,-0.00572
1790139647.9244564,-0.00973,0.00322,-0.99974,0.00224,0.00541,0.00885
1790139648.106648,0.0614,-0.00791,-1.01027,-0.00096,0.01027,0.04989
1790139648.3098361,-0.09987,0.00215,-0.99282,0.003,-0.00428,-0.04664
1790139648.3098361,0.05594,0.03581,-1.00875,-0.01356,0.01942,-0.03011
1790139648.5037026,0.00807,0.008,-0.99377,0.04162,-0.00394,0.01614
1790139648.5037026,-0.10871,-0.01039,-0.99604,-0.00266,-0.00839,-0.00468
1790139648.5231867,0.08953,0.02781,-0.99597,0.00556,0.01244,-0.03286
1790139648.7130418,-0.06878,-0.01592,-0.99155,0.03298,0.00659,-0.01785
1790139648.7287214,0.02141,0.09442,-1.00007,0.00076,-0.00014,-0.07784
1790139648.9248424,-0.10835,-0.03175,-1.00411,0.0095,0.02822,0.05979
1790139649.1350212,0.04855,-0.00616,-0.98452,0.02337,0.02227,0.06526
1790139649.1403425,-0.00306,0.00512,-1.01017,0.01596,-0.02076,-0.03074
1790139649.3400548,-0.08745,-0.00818,-1.00956,0.00938,-0.011,-0.02265
1790139649.3449461,0.08252,0.03104,-1.01107,-0.00351,-0.02277,-0.02647
1790139649.5337064,-0.06159,-0.00332,-1.00243,-0.00593,-0.02868,0.05664
1790139649.549497,-0.0223,-0.003,-0.99667,0.0025,0.01085,-0.02384
1790139649.7452962,0.07229,0.01814,-1.01213,0.0021,-0.00609,-0.02614
1790139649.7452962,-0.10535,0.01637,-0.97539,0.01585,0.02036,0.02044
1790139649.9522636,0.0015,-0.00179,-0.99786,0.00395,-0.03002,0.0166
1790139650.1462379,-0.05921,0.05426,-0.98975,0.0238,0.02496,-0.02747
1790139650.1621988,0.00887,-0.04618,-0.99984,0.01563,-0.01125,-0.02135
1790139650.3526514,0.03633,0.0056,-0.99589,-0.01077,0.01114,0.01845
1790139650.3683968,0.01841,-0.03189,-0.99988,-0.00141,0.00127,0.05063
1790139650.5663068,0.00307,0.01087,-1.0,0.00297,-0.00369,0.00601
1790139650.5722919,-0.00362,0.01304,-0.99975,0.0005,0.01024,-0.00197
1790139650.7633646,-0.01353,0.00916,-1.0019,-5e-05,0.00131,0.00466
1790139650.7633646,-0.01371,0.01335,-0.99851,0.00259,0.0043,0.00043
1790139650.8762417,-0.01363,0.01131,-0.99952,0.00104,0.00283,0.00142
1790139650.9740734,-0.01216,0.01145,-0.99822,0.00398,0.00457,-0.00098
1790139651.1500633,-0.01291,0.00933,-1.00101,0.00374,0.00438,0.00144
1790139651.1660879,-0.01432,0.01134,-1.00095,0.00435,0.00285,0.00016
1790139651.377574,-0.01718,0.00799,-0.99951,0.00639,0.00503,-0.00115
1790139651.5850432,-0.01298,0.00926,-1.00126,0.00327,0.00201,-0.00121
1790139651.7958436,-0.01431,0.00966,-1.00198,0.00343,0.00273,-0.0003
1790139651.7978423,-0.01599,-0.00052,-1.0011,-0.00232,0.00431,0.0302
1790139651.988382,-0.02174,-0.01282,-1.00176,0.00118,0.00248,0.02996
1790139651.991894,-0.01068,0.01694,-1.00022,0.00375,0.00452,0.00088
1790139652.195507,-0.00709,0.0235,-0.99934,0.00354,0.00684,-0.01413
1790139652.4011736,-0.01246,0.0133,-1.00059,0.00502,0.00856,0.00082
1790139652.6122923,-0.01278,0.0106,-0.99826,0.00273,0.00732,0.00258
1790139652.7991424,-0.0244,0.01602,-1.00117,0.00393,0.0092,0.00927
1790139652.7991424,-0.00526,0.03274,-1.00046,0.00242,0.00477,-0.0233
1790139653.023077,-0.01029,0.0148,-0.99893,0.00308,0.00508,-0.00362
1790139653.221204,-0.01804,0.00793,-0.99969,0.00332,0.00732,0.00269
1790139653.4322317,-0.00923,0.01076,-1.00035,0.00273,0.0061,-0.00137
1790139653.4322317,-0.01732,0.01011,-1.00191,0.00465,0.00495,-0.00297
1790139653.622168,-0.01267,0.00991,-0.99914,0.00246,0.00563,-0.00208
1790139653.831362,-0.01443,0.01252,-1.00026,0.00454,0.00726,-0.00223
1790139653.831362,-0.01445,0.00917,-1.00132,0.00449,0.00461,0.0013
1790139654.040907,-0.01225,0.00769,-1.00137,0.00477,0.00328,0.00474
1790139654.2516332,-0.01391,0.01035,-1.00237,0.00383,0.00013,-0.00122
1790139654.4556973,-0.02161,0.00911,-1.00103,0.00944,0.00315,0.04367
1790139654.6373925,-0.01695,0.00663,-1.00343,0.00619,-0.00116,-0.00114
1790139654.6373925,-0.01101,0.01289,-1.00185,0.00174,0.00888,-0.00671
1790139654.8476317,-0.01801,0.00365,-1.00044,0.00445,0.00222,-0.00052
1790139655.0699205,-0.01286,0.01424,-1.00182,0.00413,0.00825,0.00013
1790139655.0699205,-0.01284,0.0069,-1.00101,0.00537,0.00465,0.00202
1790139655.2648182,-0.01566,0.01049,-1.00094,-0.00057,0.00602,0.00354
1790139655.2648182,-0.02501,0.00091,-1.0004,0.00319,0.00528,0.01106
1790139655.471949,-0.01346,0.01089,-1.00032,0.01022,0.00212,0.01949
1790139655.48802,-0.0111,0.01678,-0.99884,0.00257,0.00605,-0.0091
1790139655.6561084,-0.01599,0.01116,-1.00218,0.00359,0.00368,0.00089
1790139655.8836653,-0.01258,0.00977,-1.00202,0.00232,0.00463,0.00234
1790139655.8836653,-0.01488,-0.00451,-0.99895,0.00393,0.00887,0.01627
1790139656.0126197,-0.01388,0.00725,-1.00149,0.00135,0.00694,0.00924
1790139656.0683808,-0.0118,0.01278,-1.00059,0.00404,0.00635,0.00059
1790139656.1901212,0.08339,0.01865,-0.99642,0.00761,0.02441,-0.00748
1790139656.2693698,0.246,0.00091,-1.00451,-0.02008,0.00036,0.00058
1790139656.3178995,0.08338,0.02844,-0.97591,0.04055,0.01809,-0.06207
1790139656.470735,-0.10893,-0.02255,-1.02027,-0.00431,-0.00278,0.05616
1790139656.5263698,-0.125,-0.01302,-1.00616,-0.00466,-0.00364,0.00324
1790139656.6393702,0.02573,0.01442,-0.99988,-0.00315,0.02036,-0.00793
1790139656.7846234,0.08351,0.02741,-0.99398,0.00068,0.01355,0.00724
1790139656.849767,0.011,0.02399,-1.0033,-0.00723,0.05895,-0.03322
1790139657.0257182,-0.05929,0.02102,-0.97773,0.03065,-0.00041,-0.00218
1790139657.090763,-0.03348,0.02504,-1.0014,-0.00019,0.00459,-0.03659
1790139657.171575,0.02484,-0.00315,-1.00432,-0.02521,0.02091,0.00472
1790139657.283645,0.04096,-2e-05,-0.9983,-0.00399,0.01053,-0.00078
1790139657.4186807,-0.01961,-0.00405,-0.9951,0.02724,-0.01985,0.01711
1790139657.476205,-0.01896,0.04589,-0.9952,-0.00629,-0.00245,-0.05214
1790139657.5406947,-0.01317,0.01851,-0.99317,0.00703,0.03128,-0.00644
1790139657.678275,0.00038,0.01241,-1.00669,0.00389,-0.0229,-0.00369
1790139657.8584435,-0.26087,-0.01425,-0.99721,0.00375,0.00867,0.03022
1790139657.9387534,-0.01261,0.01356,-1.00062,0.00305,0.00227,0.00514
1790139658.137586,-0.23225,0.02775,-1.01434,-0.00974,-0.01005,-0.05215
1790139658.153427,0.18621,-0.03833,-1.00699,-0.00095,0.01125,-0.01948
1790139658.3408053,-0.13078,-0.00257,-0.99984,0.0016,-0.0045,0.01657
1790139658.5499084,0.10464,0.03403,-1.00791,-0.00025,-0.00749,0.03508
1790139658.5658486,-0.15404,-0.01977,-1.00509,0.00802,-0.02274,0.00409
1790139658.693551,0.0921,0.04537,-1.02261,-0.00626,0.00563,-0.03265
1790139658.9526384,-0.0889,0.01143,-1.00269,-0.00466,0.0107,0.03971
1790139658.9687762,0.10811,0.00623,-1.00847,-0.00737,0.00863,-0.04661
1790139659.1665518,-0.09151,0.05523,-0.99181,0.00098,0.01015,-0.00654
1790139659.1665518,0.00552,-0.03626,-0.9793,0.01886,0.03543,0.06081
1790139659.371702,-0.09149,0.04318,-0.97446,0.03051,0.04754,0.01212
1790139659.5657477,0.07144,0.03962,-0.99458,0.00226,0.01353,0.00122
1790139659.6878622,-0.0293,0.0429,-0.99006,-0.01452,0.00094,-0.08059
1790139659.7746089,0.06319,-0.01191,-1.00393,-0.01082,-0.0229,0.01973
1790139659.9887297,0.01187,0.01515,-0.96784,-0.01349,0.03333,-0.02243
1790139660.1895237,-0.09837,0.01319,-1.02115,0.01544,-0.02686,0.01702
1790139660.3930748,-0.03551,0.03984,-0.99894,-0.02856,-0.02398,0.0029
1790139660.5902612,0.16637,0.01142,-1.01165,0.01454,0.02161,-0.00435
1790139660.6907082,0.00938,0.01487,-0.99985,0.00553,0.00781,0.00141
1790139660.8141363,0.00073,0.00723,-1.00165,0.00271,0.00505,0.00207
1790139661.002196,-0.00392,0.00931,-0.99902,0.00371,0.00436,0.00366
1790139661.1062758,-0.01551,0.00969,-1.00087,0.0043,0.00513,-0.00233
1790139661.307509,-0.01286,0.00906,-1.00241,0.00273,0.00629,0.00213
1790139661.307509,-0.00916,0.01121,-1.00074,0.00431,0.00599,-0.00114
1790139661.4228141,-0.01369,0.00985,-0.9997,0.00451,0.00479,-0.00053
1790139661.6229897,-0.01322,0.00947,-1.00207,-0.00115,0.00348,0.00116
1790139661.8257267,-0.01112,0.00946,-1.00208,0.00112,0.0068,0.0022
1790139661.832875,-0.01285,0.01038,-1.00183,0.00123,0.0032,-0.0003
1790139662.026516,-0.00448,0.03428,-1.00002,0.00228,0.00587,-0.00741
1790139662.026516,-0.00552,0.04297,-1.00037,0.00174,0.00679,-0.02461
1790139662.2043195,-0.00601,0.02589,-1.00225,0.00292,0.0045,-0.01819
1790139662.2043195,-0.01554,0.00233,-1.00033,0.00232,0.0086,0.01416
1790139662.4304864,-0.00853,-0.00831,-0.99807,0.00567,0.00529,0.01213
1790139662.4461672,-0.00955,0.00887,-1.00177,0.00178,0.00745,-0.00769
1790139662.639547,-0.0122,0.00675,-1.00151,0.00187,0.00487,0.00345
1790139662.639547,-0.01237,0.01204,-1.00132,0.0051,0.00484,0.00219
1790139662.7043498,-0.01121,0.00839,-1.00006,0.00433,0.00486,-0.00158
1790139662.8528206,-0.00997,0.00936,-1.00113,0.00771,0.00024,-0.01814
1790139663.0283365,-0.02587,-0.01397,-0.99947,0.00276,-0.00039,0.03623
1790139663.0442698,-0.00972,0.01507,-1.00127,0.00249,0.00559,-0.00211
1790139663.257348,-0.01567,0.01067,-1.00225,0.00341,0.00267,-0.00848
1790139663.4656181,-0.01267,0.01059,-1.00169,0.00241,0.00796,0.00151
1790139663.6583006,-0.01378,0.00884,-1.00022,0.00376,0.00491,-0.00119
1790139663.674361,-0.01225,0.01204,-1.00048,0.00229,0.00639,-0.00106
1790139663.8681135,-0.0106,0.01148,-1.002,0.00684,0.00666,0.0034
1790139663.8839364,-0.01209,0.00789,-0.99994,0.00052,0.004,-0.00108
1790139664.0774739,-0.01195,0.00663,-1.0004,0.00206,0.00511,0.00176
1790139664.0774739,-0.0131,0.00959,-1.00156,-0.00059,0.00577,0.00033
1790139664.2875795,-0.01185,0.0101,-0.99701,0.00228,0.00588,-0.00049
1790139664.4989364,-0.01077,0.0118,-1.00274,0.00327,0.0034,-0.00185
1790139664.6900253,-0.0128,0.01158,-0.99961,0.00282,0.00438,0.0007
1790139664.7105625,-0.01499,0.00334,-1.00072,0.00192,0.00321,-0.00536
1790139664.8685534,-0.02026,-0.01148,-1.00132,0.00434,0.00558,0.01866
1790139664.884366,-0.00958,0.01151,-1.00197,0.00571,0.01083,-0.00754
1790139665.0929654,-0.01634,0.00675,-1.00037,0.0016,0.00249,0.00941
1790139665.0929654,-0.01138,0.01771,-1.00031,0.00659,0.00563,0.00288
1790139665.3054523,-0.01093,0.01179,-1.00035,0.00298,0.00679,-0.00476
1790139665.514411,-0.01629,0.02023,-0.99995,-0.00174,0.00898,-0.00484
1790139665.7154276,-0.01282,-0.01706,-1.00061,0.00296,0.00941,0.02384
1790139665.9169176,-0.01089,0.02457,-1.00042,0.00133,0.00208,-0.01337
1790139665.934439,-0.01162,0.00866,-1.00119,0.00282,0.00246,-0.00264
1790139666.129044,-0.01156,0.02245,-1.00047,0.00113,0.00488,-0.03191
1790139666.2417934,-0.01511,0.00852,-1.00067,-0.00013,0.00695,0.00653
1790139666.3704457,-0.01288,0.00557,-1.00087,0.00375,0.0066,0.00429
1790139666.3864453,-0.01117,0.01596,-0.99988,0.00038,0.00531,-0.00167
1790139666.4996448,0.21165,0.02526,-1.00111,-0.0032,0.03238,-0.0334
1790139666.643544,0.15867,-0.06144,-1.00572,0.06044,0.0037,0.05224
1790139666.7080665,-0.14993,0.00954,-1.01862,0.0245,-0.0193,-0.01145
1790139666.821182,-0.0428,0.00541,-0.99763,0.01602,0.01101,0.01331
1790139666.9491756,0.07553,0.01835,-1.00266,-0.00397,0.02858,0.00886
1790139667.0225112,0.06408,0.00446,-0.9585,0.02648,0.02799,0.00112
1790139667.1574645,-0.0115,0.02811,-0.98671,-0.01505,-0.01386,-0.04107
1790139667.2703784,-0.06662,-0.00646,-1.00529,-0.00184,0.02603,0.01815
1790139667.3353047,-0.00757,0.00625,-1.001,-0.01249,0.02323,0.00311
1790139667.4644012,0.03019,0.02375,-0.99831,-0.00602,0.03065,-0.00239
1790139667.548096,-0.00469,-0.05125,-1.02233,0.01294,0.0165,0.07912
1790139667.6581101,-0.00088,0.04122,-0.99311,0.03569,-0.04012,-0.0509
1790139667.7541256,-0.02182,0.03075,-0.98868,0.01958,-0.00487,-0.03051
1790139667.9731324,-0.03343,-0.0066,-1.00151,-0.01553,-0.00847,0.03918
1790139667.9731324,-0.25968,-0.01225,-0.99893,0.02235,0.0136,0.02072
1790139668.0530775,-0.0437,0.01138,-1.00402,-0.00055,0.00627,-0.0222
1790139668.177961,-0.03634,0.00285,-1.004,0.00416,-0.00634,0.00465
1790139668.3689785,-0.16439,0.05544,-1.00447,-0.0096,-0.0089,-0.04202
1790139668.3859117,0.18633,0.01569,-1.00122,0.01379,0.01818,0.00311
1790139668.5761693,-0.16005,0.00708,-0.99893,0.01414,0.01877,-0.00508
1790139668.7530808,0.08329,0.06155,-1.00985,0.00378,0.00049,-0.04609
1790139668.766762,-0.16452,-0.00977,-1.00291,0.00726,-0.01011,0.04099
1790139668.9927368,0.11777,0.01994,-1.01455,-0.01412,0.00937,-0.0494
1790139669.0131545,-0.05703,-0.00035,-0.99659,0.00675,-0.02051,0.04531
1790139669.202727,-0.06704,0.00458,-0.99899,0.01008,0.00401,-0.02816
1790139669.202727,0.13296,0.08601,-1.01266,-0.00392,0.00253,-0.03995
1790139669.3959985,-0.12184,0.00374,-1.00443,-0.01054,-0.01535,0.01041
1790139669.4119081,0.03568,-0.01925,-0.99723,0.0125,0.01815,0.0232
1790139669.6098342,0.03976,0.06481,-1.006,-0.00512,0.00461,0.00482
1790139669.751323,0.11978,0.06291,-0.99792,-0.00646,0.01617,-0.02884
1790139669.7830915,-0.05825,-0.03228,-1.01298,-0.00689,0.00173,0.07148
1790139670.008781,0.10476,0.03309,-1.004,0.03439,-0.01194,-0.005
1790139670.025581,-0.10483,0.01154,-0.99717,0.04173,-0.00948,0.00433
1790139670.217208,0.02334,-0.04885,-1.00264,0.00604,-0.00023,0.03933
1790139670.217208,0.03417,0.06902,-0.99573,-0.0012,-0.00022,-0.03416
1790139670.4270484,-0.07864,0.0006,-1.00876,0.00223,-0.02031,0.00729
1790139670.6357133,-0.05181,0.02985,-0.99427,-0.01614,0.00169,-0.01313
1790139670.6531365,0.00439,-0.05074,-0.99946,0.01423,-0.00499,0.0369
1790139670.76103,0.10997,0.02673,-0.99014,0.00066,0.03664,-0.01096
1790139670.8425052,0.04313,0.00198,-0.99886,-0.00199,0.00991,0.00076
1790139671.0434737,0.00296,-0.00226,-1.00078,0.00312,0.00232,0.00022
1790139671.0500677,-0.00427,0.01148,-1.00062,0.00285,0.00644,-0.00283
1790139671.2448547,-0.0139,0.01044,-1.00027,0.00191,0.00435,0.0005
1790139671.3613665,-0.01304,0.00955,-1.00085,0.00195,0.00582,-0.0016
1790139671.4560077,-0.01152,0.00901,-0.99967,0.00321,0.00538,0.00529
1790139671.629314,-0.00996,0.00888,-0.99941,0.00217,0.0045,0.00044
1790139671.647619,-0.01163,0.01065,-0.99925,0.00567,0.0048,-0.00219
1790139671.776735,-0.00594,0.01402,-1.0027,0.00393,0.00534,-0.01336
1790139671.8704803,-0.02086,0.009,-1.00211,0.00242,0.00529,0.01111
1790139672.0645578,-0.00795,0.00923,-1.00027,0.00401,0.00479,-0.00704
1790139672.273433,-0.00761,0.00702,-0.99899,0.00467,0.00086,0.00587
1790139672.452779,-0.01158,-0.01022,-1.00032,-0.00071,0.00349,-0.00029
1790139672.4645052,-0.01689,-0.01073,-1.00034,0.00398,0.00314,0.02515
1790139672.6755228,-0.01068,0.01694,-0.99983,0.01374,0.00897,-0.01655
1790139672.6755228,-0.00471,0.02914,-0.9993,0.00438,0.0044,-0.01751
1790139672.7877595,-0.0114,0.00471,-1.00073,0.00347,0.00249,0.00079
1790139672.8840566,-0.00851,0.00645,-1.00023,0.00448,0.0072,0.00343
1790139673.0934024,-0.00721,-0.00011,-1.00179,0.00569,0.00492,0.01729
1790139673.285411,-0.02026,-0.00339,-1.00072,0.00221,0.0075,0.01476
1790139673.285411,-0.01884,-0.00781,-0.99947,0.00244,0.00658,0.02639
1790139673.495288,-0.00888,0.01364,-1.0015,0.00045,0.00471,-0.00488
1790139673.7073896,-0.0163,0.0045,-1.00157,0.00033,0.00522,0.00201
1790139673.8003752,-0.00862,0.01246,-1.00056,0.00519,0.00599,-5e-05
1790139673.9130468,-0.01199,0.01129,-0.99914,0.00237,0.00465,-0.00203
1790139674.1054173,-0.01167,0.0105,-1.00075,0.00285,0.00308,0.00139
1790139674.3149226,-0.01111,0.01436,-1.00153,0.00749,0.00416,0.00128
1790139674.4439163,-0.01032,0.00921,-0.99965,0.00502,0.00475,0.0
1790139674.5260952,-0.0121,0.01025,-1.0001,0.00596,0.00546,0.00144
1790139674.733271,-0.01142,0.00782,-1.0013,0.00268,0.00537,0.00189
1790139674.733271,-0.01025,0.01132,-1.00183,0.00476,0.00667,0.00084
1790139674.8182473,-0.01108,0.00863,-1.00036,0.0031,0.00376,-0.00155
1790139674.9302478,-0.01274,0.00677,-1.00092,0.00506,0.00608,0.00178
1790139675.1034336,-0.01116,0.00714,-0.99988,0.00968,0.00569,0.02009
1790139675.345162,-0.01123,-0.0146,-1.00154,-0.00012,0.02084,0.0283
1790139675.345162,-0.00929,0.01081,-0.99916,0.00464,0.01131,0.00484
1790139675.5370822,-0.01268,0.01118,-0.99915,0.00409,0.00552,-0.00059
1790139675.7490544,-0.00913,0.01327,-1.00065,0.00346,0.00471,-0.00187
1790139675.7667217,-0.01308,0.00664,-1.00052,0.00503,0.00454,0.01469
1790139675.8318357,0.00593,0.02449,-1.00046,0.00297,0.00732,-0.01418
1790139675.953725,-0.00324,0.01346,-1.00054,0.00282,0.00442,-0.0224
1790139676.16112,-0.01847,-3e-05,-0.99931,0.00372,0.00435,0.00993
1790139676.1932428,-0.00678,0.01414,-1.00236,0.00398,0.00514,-0.00281
1790139676.3650515,-0.01155,0.00941,-0.99873,0.00163,0.00483,-0.00129
1790139676.4766767,-0.01143,0.01167,-1.00025,0.00287,0.00545,0.00883
1790139676.4766767,-0.00781,0.02326,-1.00057,0.00223,0.00422,-0.0152
1790139676.6762648,-0.01137,0.00725,-0.99996,0.0032,0.00572,0.00287
1790139676.7304323,0.14108,0.0088,-0.99153,0.00811,0.03039,-0.00894
1790139676.809469,0.2214,0.00819,-1.00259,0.03183,-0.034,0.01954
1790139676.9218702,0.03915,-0.00368,-0.99223,0.00989,-0.00834,0.0345
1790139677.0507855,-0.0885,0.03282,-1.00583,0.01863,0.00889,-0.02806
1790139677.1347296,0.03985,0.01165,-1.00205,0.01885,0.02212,0.00722
1790139677.2433918,0.06717,0.00925,-0.97298,0.00691,-0.02019,-0.01268
1790139677.3800325,-0.00273,-0.00663,-0.98666,-0.00058,0.00294,0.02532
1790139677.435462,-0.05501,0.02834,-1.00586,0.00907,-0.00086,-0.01752
1790139677.4994314,-0.03453,0.00839,-0.99924,-0.01469,-0.00581,-0.00188
1790139677.643419,0.03067,0.01431,-1.00792,0.00488,0.01715,-0.0107
1790139677.7072666,0.00525,-0.02002,-1.01115,-0.00681,-0.01906,-0.00049
1790139677.8192923,-0.01008,0.01006,-0.98185,-0.00015,0.02495,0.00131
1790139678.0013871,-0.01712,0.01321,-0.98544,-0.00158,0.01138,0.0286
1790139678.1952264,-0.15852,0.00917,-0.98705,-0.00277,-0.00055,-0.01624
1790139678.1952264,-0.09416,0.09149,-1.0044,-0.00158,-0.01207,-0.04874
1790139678.4090803,-0.01255,0.03893,-0.99879,0.00539,0.0086,-0.0079
1790139678.4195988,-0.20538,0.01474,-0.99705,0.00341,0.0154,-0.02447
1790139678.4195988,0.04092,0.04041,-0.99458,0.0119,0.0331,-0.00289
1790139678.6175296,0.08926,0.02162,-1.003,0.00184,-0.00769,-0.00239
1790139678.8246827,-0.19846,-0.00483,-0.99767,0.00303,0.0168,0.04519
1790139678.8246827,0.14742,0.0254,-1.00539,-0.00965,0.0193,-0.02791
1790139678.8540566,-0.05398,0.02937,-1.00116,0.01144,-0.01328,-0.00633
1790139679.0323927,-0.08925,0.02705,-1.02879,0.00681,-0.00431,0.00863
1790139679.223215,0.13345,-0.01982,-0.99799,0.01552,-0.00752,-0.00376
1790139679.2389216,-0.12803,0.01536,-1.01106,-0.00134,-0.00069,-0.0311
1790139679.2389216,0.0469,0.00203,-0.99412,-0.01558,-0.00349,0.05862
1790139679.431322,0.04506,0.0254,-1.00424,0.0091,-0.01018,-0.02106
1790139679.4478643,-0.12551,0.02301,-1.02684,-0.03207,0.01898,-0.05536
1790139679.642179,0.10865,0.01127,-1.00122,-0.00784,0.02194,0.00182
1790139679.642179,-0.04715,0.01767,-1.00534,0.01381,-0.04088,0.00137
1790139679.8507514,0.08484,0.02353,-1.00629,0.01265,0.0079,0.03766
1790139680.0583198,-0.08532,0.0181,-1.00085,0.00328,0.00277,-0.01961
1790139680.0730624,0.03107,0.02261,-1.00008,-0.01695,0.01379,0.03011
1790139680.265634,0.02628,0.02516,-1.00386,0.00418,-0.01651,0.08166
1790139680.2686574,-0.11386,-0.01043,-1.00264,0.02037,0.00951,-0.01067
1790139680.4620657,0.10423,0.05858,-0.99323,0.00613,-0.00381,-0.04735
1790139680.6689093,0.07738,0.0166,-1.00481,0.00081,-0.00091,-0.01574
1790139680.8624485,-0.09633,0.04327,-0.98655,-0.01763,0.01547,0.0041
1790139680.8779788,0.00812,-0.01019,-1.00083,-0.01378,-0.00453,-0.10469
1790139681.0795681,0.02321,0.01309,-1.0093,0.00353,-0.00984,-0.02234
1790139681.092701,0.17102,0.01626,-0.9982,0.01863,0.02109,-0.01797
1790139681.2859995,-0.00175,0.00497,-1.00203,0.00393,-0.00162,-0.00641
1790139681.2932572,-0.0081,0.01007,-0.99846,0.00711,0.0109,0.00585
1790139681.4881656,-0.0131,0.01411,-1.00143,0.00177,0.00128,0.00735
1790139681.6023982,-0.01319,0.012,-1.00028,0.00063,0.0038,-0.00237
1790139681.6023982,-0.01147,0.00685,-0.99935,0.00189,0.00554,0.00184
1790139681.858514,-0.01065,0.011,-0.99991,0.00186,0.00436,0.00355
1790139682.0659118,-0.00676,0.0147,-1.00025,-0.00198,0.00189,-0.02107
1790139682.0819695,-0.01689,0.01033,-0.99974,0.00289,0.00605,0.00281
1790139682.1022284,-0.0111,0.00999,-1.00076,0.00164,0.00433,0.00053
1790139682.309939,-0.00818,0.01071,-1.00052,0.00339,0.00423,-6e-05
1790139682.309939,-0.00892,0.01101,-1.00212,0.00603,0.00479,0.00014
1790139682.5151265,-0.01384,0.00629,-1.00064,-0.00022,0.01128,0.02375
1790139682.708445,-0.00813,0.02079,-1.00112,0.00375,0.00463,-0.01262
1790139682.7104576,-0.00988,0.01521,-1.0004,0.00644,0.00319,-0.00243
1790139682.9188778,-0.01078,0.00833,-1.00051,0.00035,0.00981,0.02139
1790139682.9188778,-0.00859,0.00633,-1.00075,0.00302,0.00286,0.00588
1790139683.1279578,-0.00919,0.01463,-0.99986,-0.00022,0.00886,-0.00109
1790139683.1279578,-0.0113,0.01115,-1.0006,0.00399,0.00374,-0.00154
1790139683.3218014,-0.00949,0.00832,-1.00218,0.00107,0.00693,-7e-05
1790139683.5103233,-0.01862,-0.00014,-1.00212,0.00412,0.00733,0.01184
1790139683.7410553,-0.00216,0.01456,-1.00152,0.00273,0.0076,-0.03215
1790139683.9273286,-0.02031,0.01079,-1.00096,0.0046,0.00762,0.00425
1790139683.9332063,-0.00842,0.00925,-1.00185,0.00208,0.00648,-0.00568
1790139684.1243887,-0.0098,0.00798,-1.00066,0.00047,0.00414,0.00437
1790139684.1243887,-0.01096,0.00908,-1.00057,0.00171,0.00836,0.00042
1790139684.173871,-0.01141,0.01129,-0.99931,0.0038,0.0041,0.00021
1790139684.3483994,-0.01015,0.00993,-0.99918,0.00481,0.0025,-0.00051
1790139684.5593653,-0.00994,0.01176,-1.00033,0.00447,0.00466,-0.0005
1790139684.5714931,-0.01228,0.01045,-1.00197,0.00373,0.00549,0.0012
1790139684.7620423,-0.00987,0.01279,-1.00261,0.0052,0.00307,-0.00095
1790139684.8747473,-0.01125,0.01193,-1.00145,0.00214,0.00288,-0.0007
1790139684.9855616,-0.01076,0.00903,-1.00103,0.0019,0.00281,0.00066
1790139684.9855616,-0.01178,0.00793,-1.00038,0.00417,0.0067,0.00279
1790139685.593223,-0.01085,0.01289,-0.99938,0.00221,0.00694,-0.00251
1790139685.7547784,-0.01013,0.01041,-0.99953,0.00402,0.00433,-9e-05
1790139685.9329717,-0.00618,0.01513,-1.00049,0.0034,0.00434,-0.03252
1790139686.1914434,-0.0145,0.00944,-1.00015,0.00391,0.00114,0.0035
1790139686.212321,-0.0091,0.01142,-1.00127,0.00259,0.00477,-0.00082
1790139686.4013464,-0.02019,0.01342,-1.00017,0.00087,-0.00287,-0.00194
1790139686.4186616,-0.01006,0.03553,-1.00026,-0.00073,0.00155,-0.0275
1790139686.5950391,-0.01393,0.00282,-0.9993,0.00276,0.00429,0.01249
1790139686.6194413,-0.01196,0.00511,-0.9999,0.00152,0.00566,0.00319
1790139686.8051264,-0.0114,0.0134,-1.00168,0.00546,0.00631,0.00145
1790139686.823842,-0.00864,0.01092,-1.0002,0.00261,0.00518,-0.00325
1790139686.9605467,-0.01062,0.01037,-1.00045,0.00194,0.0057,0.00142
1790139687.0329106,-0.01033,0.01201,-1.00019,0.00204,0.00618,-0.00298
1790139687.1675367,0.19089,0.018,-0.996,0.01426,0.03084,-0.05287
1790139687.232095,0.18989,-0.01731,-1.01217,-0.00307,-0.0209,-0.00503
1790139687.4091685,0.00964,0.00935,-0.99284,0.00023,-0.00512,0.0341
1790139687.4251528,-0.16157,-0.00561,-1.01218,0.00751,-5e-05,0.03844
1790139687.5542378,-0.06401,0.02761,-0.98699,0.0207,0.0215,-0.00675
1790139687.684938,0.06883,0.01822,-0.98566,-0.03103,0.04037,0.00424
1790139687.7470515,0.0659,-0.00846,-0.96822,0.06169,0.02072,0.01347
1790139687.8600867,-0.01014,0.00521,-0.98367,0.01546,0.00236,0.01991
1790139687.95596,-0.06402,0.02462,-1.0086,0.0206,-0.00616,-0.01781
1790139688.053069,-0.01973,0.00999,-1.00926,-0.00278,0.00974,0.00388
1790139688.1822555,0.02598,0.01085,-0.99824,0.00798,0.01413,-0.02897
1790139688.24629,-0.0102,-0.00779,-1.02125,0.03956,0.01,0.02104
1790139688.3737237,0.00249,0.01441,-0.97164,-0.02533,0.00882,0.00825
1790139688.4703221,-0.02601,0.00367,-0.99581,-0.00124,0.00208,0.0097
1790139688.5950403,-0.02052,0.00092,-1.00991,0.00407,-0.01097,0.01247
1790139688.8560941,0.0129,0.01797,-1.00995,0.01398,-0.00905,0.01667
1790139688.8560941,-0.17102,0.00143,-0.99849,0.00247,-0.01141,0.02535
1790139688.8687837,-0.22055,0.03425,-1.00172,-0.00326,0.0083,0.09301
1790139688.9704986,-0.04182,0.0361,-1.00216,-0.01269,-0.00832,-0.05515
1790139689.0673337,-0.0081,0.01455,-0.99718,0.00624,0.00592,0.02242
1790139689.2613406,-0.05228,0.00868,-0.99693,0.01357,0.00352,0.00113
1790139689.470808,-0.03866,0.01153,-1.00099,-0.00436,-0.00022,-0.0217
1790139689.470808,-0.0188,0.02445,-1.00361,0.01129,-0.00071,-0.00945
1790139689.6801689,0.03601,0.03647,-1.00546,-0.00085,-0.0081,-0.02033
1790139689.877425,-0.02451,-0.01081,-0.99142,0.05146,0.00336,0.0811
1790139689.9853048,-0.06296,-0.03987,-1.0029,0.01897,-0.02736,0.02734
1790139690.0819416,0.03524,0.02412,-1.00579,0.00377,0.01,-0.05373
1790139690.2941616,-0.03931,-0.05204,-0.99564,0.00927,0.00843,0.09874
1790139690.3072007,-0.01462,0.00292,-1.01029,0.00233,0.00602,-0.06687
1790139690.460462,0.00836,0.03474,-0.99453,-0.00678,0.01877,0.06179
1790139690.693479,-0.03555,-0.00564,-1.00738,0.00559,0.00151,-0.00799
1790139690.7095516,0.00013,0.02661,-1.01113,-0.01501,0.00325,0.02181
1790139690.7095516,0.01311,-0.00701,-1.0003,0.00863,0.00669,0.02179
1790139690.9114287,-0.04255,-0.00048,-0.99328,0.01233,0.01518,-0.01225
1790139690.9209394,0.01399,0.00774,-1.00761,0.00234,0.01019,0.03768
1790139690.999122,-0.05286,0.02971,-1.00379,-0.00226,-0.00103,-0.04436
1790139691.1152258,0.05342,0.02511,-1.00259,-0.02226,0.0347,0.01822
1790139691.32203,-0.03349,0.00069,-0.99922,0.01565,-0.0076,0.03664
1790139691.32203,-0.03601,0.01199,-0.99971,0.01016,0.01943,-0.025
1790139691.526458,0.07044,0.06601,-0.99266,0.0052,-0.01345,0.00046
1790139691.526458,-0.05867,-0.00178,-1.00567,0.01844,-0.02811,-0.0004
1790139691.720245,0.02763,-0.01182,-1.02041,-0.00509,-0.00502,-0.00066
1790139691.720245,0.00813,0.02515,-0.98953,0.01112,0.00663,0.01363
1790139691.9361768,-0.06819,0.0086,-0.99729,0.00211,-0.02622,-0.00588
1790139691.9361768,0.06541,0.0282,-1.01589,0.00391,0.01508,-0.01503
1790139692.1391554,-0.04967,-0.01574,-1.00133,0.01459,-0.02711,0.0445
1790139692.1391554,0.1247,0.00329,-0.99647,-0.01523,0.03207,-0.01115
1790139692.3299243,0.02838,0.00983,-1.00015,0.00398,0.01015,0.00265
1790139692.3467903,0.01303,0.02263,-0.99936,0.00283,0.00816,-0.01592
1790139692.4470341,-0.0135,0.00482,-1.00135,0.00414,0.00688,0.00703
1790139692.5473344,-0.02207,-0.00177,-1.00077,0.00209,0.00563,0.01513
1790139692.7486205,-0.00606,0.01362,-0.99991,0.0045,0.00597,-0.00605
1790139692.9269347,-0.00712,0.00841,-1.0003,0.00294,0.00336,0.00065
1790139692.947838,-0.00873,0.01252,-1.00156,0.00497,0.00661,-0.00203
1790139693.1492314,-0.00762,-0.00277,-0.9996,0.00718,0.00087,0.0085
1790139693.1696723,-0.01913,0.00684,-1.0022,0.00365,0.00404,0.00707
1790139693.3616893,-0.00578,0.00809,-0.99915,0.00026,0.00482,0.00401
1790139693.3616893,-0.20894,0.00533,-0.98613,0.02375,-0.00488,0.22676
1790139693.5659585,0.11912,0.01231,-0.9965,-0.02679,0.02582,-0.47268
1790139693.5659585,-0.01797,0.0225,-0.99197,0.00147,0.0224,0.25725
1790139693.7530525,-0.15637,-0.01627,-1.00098,-0.00538,-0.00567,0.02421
1790139693.7597966,-0.0266,-0.00775,-1.00151,0.02245,0.01281,0.1963
1790139693.9689727,0.11506,-0.06548,-1.00917,-0.01562,0.02681,-0.20327
1790139694.1791227,0.22891,0.01624,-0.99666,-0.00126,-0.00108,-0.08723
1790139694.1791227,-0.01837,-0.06241,-1.00592,-0.02527,0.0036,-0.07273
1790139694.3884096,-0.04336,0.01456,-0.99651,-0.0089,0.00157,0.01037
1790139694.3884096,-0.03543,0.00426,-1.00079,0.00182,0.0053,0.02111
1790139694.563414,-0.03427,0.00571,-0.9999,0.00494,0.00181,0.00099
1790139694.5792544,-0.01714,0.02403,-1.00026,0.00373,0.00294,-0.00661
1790139694.8045783,-0.02373,0.0136,-1.00187,0.00557,0.00565,0.00126
1790139694.9979522,-0.01473,0.00287,-0.99932,0.00426,0.00445,0.00279
1790139694.9979522,-0.01091,0.01445,-1.00082,0.00521,0.00052,-0.00424
1790139695.2096982,-0.01336,0.00978,-1.00049,0.00262,0.00674,-0.00346
1790139695.2096982,-0.01161,0.01283,-1.00119,0.00229,0.00782,0.0018
1790139695.4175353,-0.01122,0.01171,-1.00015,0.00391,0.00595,0.00172
1790139695.4333558,-0.01476,0.00818,-0.99912,0.00199,0.00284,-0.00284
1790139695.6139998,-0.01528,0.00904,-0.99964,0.00405,0.00362,-0.00252
1790139695.822379,-0.01213,0.00823,-0.9997,0.00423,0.00651,0.00347
1790139695.822379,-0.015,0.00607,-1.00121,0.00451,0.00608,0.00304
1790139696.0303376,-0.01424,0.00773,-0.99912,0.00212,0.00567,0.00213
1790139696.0303376,-0.01364,0.00688,-0.99982,0.00382,0.00491,0.00687
1790139696.224651,-0.01397,0.00782,-1.00157,0.0012,0.00145,0.00176
1790139696.224651,-0.01117,0.01394,-0.99992,0.00307,0.00272,-0.00385
1790139696.4010503,-0.02019,0.00863,-1.00153,0.00501,0.00451,0.03517
1790139696.4010503,-0.01537,-0.00621,-1.00139,0.00385,0.00972,0.01656
1790139696.6420352,-0.01287,0.01843,-1.00021,0.00471,0.00989,-0.00281
1790139696.8503394,-0.01556,0.00682,-1.00306,0.00543,0.00493,0.0016
1790139697.0598114,-0.01474,0.01102,-0.99982,0.00253,0.00284,0.00581
1790139697.2528815,-0.00728,0.00762,-1.00126,0.00272,0.0014,-0.01912
1790139697.2691622,-0.01656,0.00505,-1.00165,0.00315,0.00447,0.00722
1790139697.4632103,-0.01601,0.00494,-1.00127,0.00317,0.00486,0.00863
1790139697.4632103,-0.01272,0.01319,-1.00026,0.00303,0.00565,-0.00179
1790139697.666781,-0.01343,0.01179,-0.99959,0.00327,0.00551,0.00203
1790139697.6714969,-0.01199,-0.0104,-1.00036,0.00607,0.00295,0.00928
1790139697.7946877,-0.01539,0.01383,-1.00193,0.00018,0.00392,-0.00489
1790139697.9080768,-0.01382,0.01253,-1.00115,0.00382,0.00196,0.00165
1790139697.9268782,0.14776,0.00806,-1.00155,0.00172,0.02083,-0.01134
1790139698.0525167,0.22955,0.01704,-1.00032,-0.00949,0.01321,0.0404
1790139698.180833,0.02885,0.00221,-1.01208,0.02439,-0.00943,0.01209
1790139698.244821,-0.12845,0.01466,-0.99828,-0.01028,0.00245,-0.03016
1790139698.357321,-0.09628,-0.00427,-1.00094,0.00728,0.03026,0.02105
1790139698.4220238,0.05135,0.03841,-0.98451,0.05056,0.06567,-0.01199
1790139698.567108,0.07553,-0.01955,-0.99009,0.00922,0.0093,0.03397
1790139698.634922,-0.00775,-0.00653,-0.99255,-0.02761,-0.00751,0.05532
1790139698.8099563,-0.0516,0.00896,-1.00288,-0.04172,-0.03094,-0.01484
1790139698.8847415,0.00051,0.08961,-1.03079,-0.03323,-0.00778,-0.07005
1790139698.9543836,0.00794,-0.03428,-1.01146,-0.05239,-0.03677,-0.00135
1790139699.083114,0.04109,0.02556,-0.99459,-0.0058,-0.02479,-0.00985
1790139699.1468933,-0.01435,0.02173,-0.99377,0.01131,0.0231,0.01673
1790139699.2598255,-0.02739,0.0106,-1.0162,0.00598,-0.02801,0.00228
1790139699.3891869,0.00486,0.0371,-0.99425,0.01179,-0.01269,-0.0492
1790139699.4696782,0.00726,0.00963,-0.99017,0.00464,0.03829,0.01459
1790139699.7035356,-0.00417,0.01546,-1.00974,-0.02222,0.02273,-0.01849
1790139699.8324292,-0.26999,-0.0235,-0.99918,0.00468,0.0016,0.11717
1790139699.8537066,-0.01081,0.00672,-1.00572,-0.00738,0.01239,0.04584
1790139700.0888765,-0.16362,0.0805,-1.00207,0.00091,0.00752,-0.05478
1790139700.3305566,-0.12682,0.0456,-0.99951,0.00334,-0.00047,0.01828
1790139700.537268,0.07897,0.01067,-0.99803,0.00799,0.00523,-0.01173
1790139700.7307265,-0.1366,0.04995,-1.00711,0.0127,0.01882,0.01513
1790139700.7307265,0.10331,0.0084,-1.00383,-0.00375,0.02092,0.00192
1790139700.9387305,-0.03594,-0.00056,-0.99819,0.01498,-0.01482,0.00944
1790139700.9535012,-0.06937,0.02052,-1.00529,0.00916,0.00685,-0.00981
1790139701.078452,0.10032,0.03091,-1.01416,0.00236,0.00311,-0.02488
1790139701.0942512,-0.07986,0.00505,-0.9934,0.02262,-0.00844,0.00497
1790139701.3563223,0.03724,0.00703,-1.0085,-0.00831,0.00388,0.04334
1790139701.5447435,-0.08421,0.00748,-0.97345,0.02984,0.02733,-0.03266
1790139701.5609267,0.02286,-0.03412,-0.99483,-0.01227,0.0104,0.05483
1790139701.7589364,-0.02057,0.01603,-1.00232,0.00795,0.00772,0.00461
1790139701.7589364,-0.03698,0.03506,-1.01102,0.00168,0.00891,-0.02458
1790139701.966298,0.03965,0.01327,-1.01834,-0.02397,-0.00628,0.04351
1790139701.966298,-0.04719,-0.00449,-0.98621,0.02418,0.01682,0.01675
1790139702.0961635,0.03237,0.06342,-0.99394,-0.01355,-0.00903,-0.00374
1790139702.1081247,-0.05251,0.01029,-1.00181,0.0057,-0.027,0.01966
1790139702.3667517,0.03744,0.00847,-1.00335,-0.00486,-0.00951,-0.00254
1790139702.3667517,-0.00661,0.01674,-0.99031,0.0281,-0.00202,-0.00311
1790139702.5753512,-0.0313,-0.00521,-0.98888,0.03905,-0.0109,0.03474
1790139702.5753512,0.04323,0.00849,-1.00133,0.00233,-0.0104,0.00318
1790139702.7839928,-0.05188,0.01719,-1.01022,0.02071,-0.0103,-0.00041
1790139702.7839928,-0.00449,0.01414,-0.99204,-0.00452,0.01669,0.00845
1790139702.982038,-0.001,0.00174,-1.00153,0.00728,-0.00636,0.0368
1790139703.1032166,0.01799,0.01669,-1.00232,-0.00058,0.01381,-0.00878
1790139703.1141274,-0.01403,0.00422,-1.00035,-0.00055,0.00383,0.0146
1790139703.403393,-0.02471,0.01046,-1.00138,0.00435,0.00647,-0.00092
1790139703.4154587,-0.01952,0.02156,-0.99993,0.0067,0.0058,0.00173
1790139703.5275435,-0.00896,0.00906,-1.00035,0.00542,0.00454,0.0006
1790139703.5275435,-0.00969,0.01071,-0.9991,0.00059,0.00428,0.00165
1790139703.7846572,-0.0148,0.0127,-1.00101,0.00157,0.00459,-0.00396
1790139704.011141,-0.01157,0.0103,-1.00112,0.00182,0.00692,0.00148
1790139704.011141,-0.01984,0.0063,-1.0016,0.00454,0.00086,0.01823
1790139704.1075866,-0.01292,0.01453,-1.00338,0.0005,0.00579,-0.00145
1790139704.2193687,-0.00764,0.00765,-1.0027,0.00416,0.00787,0.00323
1790139704.4160092,-0.01703,0.01045,-0.9997,0.00127,0.00495,-0.00184
1790139704.5884762,-0.00922,0.03923,-1.00079,0.00261,0.0057,-0.02401
1790139704.6087587,-0.02069,-0.00379,-0.99945,0.00618,0.00395,0.03065
1790139704.8304257,-0.01291,0.0038,-1.00142,0.00518,0.00767,0.00617
1790139704.8304257,-0.01088,0.00696,-0.99983,-0.00053,0.01012,0.02021
1790139704.8461363,-0.01382,0.007,-1.00127,0.0047,0.00365,0.00503
1790139705.041991,-0.01099,0.01233,-1.00151,0.00189,0.00675,-0.00405
1790139705.120289,-0.01295,0.00947,-0.99997,0.00434,0.00402,-0.0011
1790139705.2367294,-0.0341,0.08043,-0.99247,-0.02543,0.00165,-0.03145
1790139705.4203274,-0.00976,0.00118,-1.00756,0.00454,0.02045,-0.04041
1790139705.422339,-0.169,0.07522,-1.01253,-0.01484,0.01365,0.00838
1790139705.650621,-0.17844,0.05047,-0.98222,0.0466,0.00781,0.44368
1790139705.650621,0.10527,0.0841,-0.99388,-0.0304,0.05695,-0.04513
1790139705.8612642,-0.00775,-0.02679,-1.01377,-0.00222,0.03717,0.05494
1790139705.8612642,0.08037,0.04105,-0.98766,0.02733,0.04708,0.16681
1790139705.8773346,-0.05164,0.00471,-1.01637,-0.01285,0.01815,-0.20459
1790139706.0702624,0.04158,0.03719,-1.00027,0.0012,0.01734,0.12146
1790139706.0702624,0.00192,0.03038,-0.99501,-0.00887,0.01015,-0.24312
1790139706.2631142,0.145,-0.03135,-0.98761,0.01231,-0.00764,-0.05303
1790139706.2631142,0.10009,0.03469,-1.00033,0.00029,0.00905,-0.17098
1790139706.4569762,-0.01077,0.00022,-1.00092,-0.00309,0.00276,-0.07391
1790139706.4888659,-0.03187,0.01623,-1.00206,0.00489,-0.00032,-0.0161
1790139706.6815236,-0.02593,0.01516,-0.99924,0.00245,0.00419,-0.01546
1790139706.6815236,-0.01028,0.02076,-1.00137,0.00279,0.00366,-0.0211
1790139706.8753102,-0.00518,0.02518,-0.99994,0.00191,0.00354,-0.00996
1790139707.0846703,-0.01111,0.01171,-0.99994,0.00393,0.00306,0.00717
1790139707.0846703,-0.015,0.0143,-0.99863,0.00624,0.00183,0.01807
1790139707.2629194,-0.01303,0.0186,-1.00102,0.00467,-0.0019,0.00477
1790139707.4887474,-0.01313,0.00363,-1.00171,0.00439,0.00426,0.01315
1790139707.4887474,-0.01106,0.00407,-1.00332,0.00266,0.00829,0.01092
1790139707.6985455,-0.00855,0.02365,-1.00089,0.00563,0.00808,-0.00242
1790139707.6985455,-0.0115,0.00932,-0.99893,0.00278,0.00695,-0.00361
1790139707.714558,-0.00893,0.01718,-0.99949,0.00293,0.00524,0.00637
1790139707.9092784,-0.01282,0.00775,-0.99916,0.00117,0.00632,0.01119
1790139708.104281,-0.01605,0.00657,-1.00165,0.00414,0.00479,0.01514
1790139708.104281,-0.01527,0.00592,-0.99955,0.00549,0.00478,0.01025
1790139708.3100562,-0.01462,0.00028,-1.00192,0.00268,0.00563,0.01326
1790139708.331329,-0.0139,0.00779,-1.00016,0.00365,0.00371,0.00546
1790139708.519953,-0.01637,-0.00915,-1.00081,0.00426,0.00137,0.03398
1790139708.5357335,-0.0152,-0.00197,-0.99976,0.00396,0.00303,0.01866
1790139708.6330702,-0.01225,0.0098,-1.00238,0.00195,0.00314,0.00192
1790139708.7100468,-0.0067,0.00866,-1.00154,-0.00073,0.00918,-0.00421
1790139708.8297994,0.22236,0.05687,-0.99673,0.0069,0.02883,-0.07981
1790139708.932952,0.16099,-0.03803,-1.02479,-0.00765,-0.03027,0.02904
1790139709.0312624,-0.03971,0.01062,-0.98927,0.02455,0.00319,0.02904
1790139709.1457496,-0.15085,0.00562,-0.99241,0.02574,-0.00223,0.00854
1790139709.269607,-0.067,0.0084,-0.99649,0.00975,0.01224,0.0003
1790139709.34874,0.0757,0.03035,-0.98947,0.06091,0.01752,-0.00656
1790139709.4626868,0.0563,0.02112,-0.99063,0.00443,0.01281,0.01837
1790139709.5918956,-0.04046,0.00014,-1.01505,-0.00087,-0.01572,0.02358
1790139709.6751442,-0.07771,0.02007,-0.99792,0.00199,0.01169,-0.03505
1790139709.7363656,-0.00521,0.02476,-0.99263,0.01243,0.02655,-0.02303
1790139709.913527,0.04241,0.03102,-0.99021,-0.00491,0.00437,-0.01748
1790139709.978011,0.01525,0.00532,-1.01488,-0.00252,0.00638,0.01887
1790139710.0427763,-0.03122,-0.01487,-1.01751,-0.07541,0.00258,0.06556
1790139710.1881607,-0.0357,0.0018,-0.99326,-0.00355,-0.01726,-0.00893
1790139710.2519133,0.01098,0.01616,-1.01096,-0.02651,-0.00172,-0.00384
1790139710.381336,0.03144,0.01093,-0.99586,0.01713,-0.00038,-0.01308
1790139710.515384,-0.00785,0.00066,-0.99024,0.02711,-0.00906,-0.00261
1790139710.6241534,-0.0239,0.00431,-0.9978,0.01921,-0.02197,0.01167
1790139710.7703135,-0.02302,-0.00366,-1.01302,-0.02051,0.03179,0.03965
1790139710.7703135,-0.00778,0.02013,-1.00697,-0.01102,-0.01485,0.01592
1790139710.9792583,-0.11296,0.01501,-1.00468,0.00494,-0.02903,0.00294
1790139710.9952085,-0.18476,0.03034,-1.00079,-0.01368,0.0105,0.13484
1790139711.18105,-0.06799,-0.01584,-0.99813,0.01202,-0.00182,-0.01519
1790139711.1887205,0.01619,-0.00181,-1.00011,0.00341,0.00364,0.00738
1790139711.3836746,-0.00452,0.00859,-1.00142,0.00617,0.00221,0.00715
1790139711.3836746,0.00105,0.01293,-1.00229,-0.00011,0.00771,-0.00042
1790139711.5824418,0.00237,0.01185,-0.99993,0.003,0.00521,0.00265
1790139711.5824418,-0.00096,0.0067,-1.00223,0.00051,0.00586,0.0324
1790139711.6952333,-0.00263,0.00459,-1.00058,0.00112,0.00066,-0.00251
1790139712.0047982,-0.00323,0.01137,-1.0017,0.00305,0.00197,0.00089
1790139712.180956,-0.00455,0.01272,-1.00143,-0.00073,0.00276,0.00205
1790139712.406976,-0.00526,0.01178,-0.99957,0.0016,0.00508,0.00097
1790139712.406976,-0.00999,-0.00309,-0.99759,0.00337,0.00601,0.01158
1790139712.406976,-0.00975,0.01616,-1.0005,0.006,0.00391,-0.00167
1790139712.6177971,-0.00279,0.01558,-1.00025,0.00358,0.00722,-0.00038
1790139712.8096638,-0.00459,0.0102,-0.99995,0.00335,0.00619,0.00042
1790139712.8256273,0.00215,0.03744,-0.99992,0.00064,0.00542,-0.04482
1790139712.9869983,-0.00991,-0.00365,-1.00101,0.00325,0.00726,0.01454
1790139713.0350306,-0.0041,0.00984,-1.00083,0.00404,0.00372,-0.00085
1790139713.2124069,-0.01264,-0.007,-0.99928,0.00029,0.00907,0.02098
1790139713.228532,-0.00365,0.00954,-0.99879,0.00259,0.006,0.00542
1790139713.4382195,-0.00495,0.01426,-1.00042,0.00475,0.00398,0.00069
1790139713.4382195,-0.00577,0.00945,-1.00059,0.00344,0.00624,0.00067
1790139713.6320586,-0.00479,0.01441,-1.00253,0.00193,0.00779,-0.00106
1790139713.8129077,-0.00936,0.00404,-1.00113,0.00286,0.00815,0.00555
1790139713.8254187,-0.00455,0.01002,-0.99972,0.00192,0.00654,0.00088
1790139714.0532126,-0.00863,0.01354,-1.0013,0.00605,0.00513,0.00625
1790139714.2274008,-0.00466,0.01078,-0.99973,0.00195,0.00554,-0.00097
1790139714.243237,-0.00533,0.01324,-0.99871,0.00303,0.00868,0.00234
1790139714.4518628,-0.0033,0.01072,-1.00146,0.00351,0.00469,-0.0009
1790139714.469927,-0.0023,0.01215,-1.00167,0.0046,0.0072,-0.00276
1790139714.6652796,-0.00404,0.01195,-0.99915,0.00262,0.00474,-0.00138
1790139714.8562512,-0.0017,0.01418,-1.00006,0.00311,0.0036,-0.00109
1790139714.8720896,-0.00604,0.01445,-1.00071,0.00293,0.00519,-7e-05
1790139715.0716176,-0.00347,0.01358,-1.00017,0.00381,0.00597,-0.00167
1790139715.2434165,-0.00313,0.01355,-1.0011,0.00407,0.00639,-0.0012
1790139715.4840293,-0.00603,0.01095,-0.9987,0.00314,0.00586,0.00121
1790139715.4840293,-0.0073,-0.00387,-0.99883,0.00742,0.00899,0.00554
1790139715.6750534,-0.00316,0.0232,-0.99738,0.00586,0.01023,0.01172
1790139715.8867373,-0.00304,0.01258,-0.99963,0.00391,0.00357,0.01037
1790139716.0943723,-0.00618,0.00526,-1.00166,0.00285,0.00783,0.00573
1790139716.0943723,-0.00358,0.01408,-1.00201,0.00506,0.00418,0.00099
1790139716.2534409,-0.00218,0.01361,-1.00009,0.00172,0.00567,-0.00475
1790139716.3855937,-0.00477,0.00281,-1.00211,-0.00114,0.00768,-0.00783
1790139716.3855937,-0.00781,0.0113,-0.99885,0.00516,0.00538,0.01151
1790139716.508405,-0.00688,-0.00018,-1.00149,0.0052,0.00377,0.01069
1790139716.6825664,-0.00251,0.01981,-1.0013,0.00311,0.00506,-0.00014
1790139716.9096181,-0.00164,0.01532,-0.99885,0.00262,0.00304,-0.0043
1790139716.9210012,0.04328,0.1562,-0.98624,-0.0318,0.04789,-1.51598
1790139717.1292927,0.03569,0.04218,-1.00954,0.01887,-0.00136,-1.56361
1790139717.2581892,0.00371,-0.01024,-0.99098,-0.00713,0.00971,-1.47565
1790139717.3380442,-0.0114,-0.0181,-1.00208,0.026,0.0221,-1.5529
1790139717.534663,0.03447,0.02123,-1.02018,-0.02388,-0.0209,-1.54796
1790139717.534663,0.00777,-0.0492,-1.0072,0.04963,0.01045,-1.49021
1790139717.739845,0.02527,0.01835,-0.98174,-0.00291,0.04936,-1.58071
1790139717.9365706,-0.04513,-0.09597,-1.01647,0.00688,0.01009,-0.56012
1790139718.1431065,-0.00613,0.02082,-1.00092,0.00137,0.00719,-0.02084
1790139718.1588671,-0.01625,0.00663,-0.99933,0.00114,0.00605,0.00606
1790139718.2790651,-0.01033,0.01764,-1.00271,0.00307,0.00289,0.0004
1790139718.3546724,-0.01272,0.01146,-0.99907,0.00303,0.00807,0.00196
1790139718.568571,-0.01324,0.01303,-1.003,0.00384,0.00589,-0.00018
1790139718.7629647,-0.01622,0.00679,-1.00134,0.00697,0.00592,0.00283
1790139718.967802,-0.01237,0.01471,-1.00402,0.00219,0.00422,0.00318
1790139719.1667647,-0.00893,0.00128,-1.001,0.00382,-0.00393,-0.00211
1790139719.2733028,-0.00681,0.0156,-1.0,0.0039,0.00213,-0.01604
1790139719.3529642,-0.01726,-0.0025,-1.00171,0.00156,0.00425,0.01349
1790139719.4655523,0.12946,-0.0051,-1.00245,-0.03683,0.02852,0.00561
1790139719.5772922,0.23251,0.03882,-1.01545,-0.02047,-0.03846,0.01447
1790139719.657733,0.03256,-0.00876,-0.99223,-0.00431,-0.00771,-0.00855
1790139719.786165,-0.13927,-0.03238,-1.00032,0.00228,0.02401,0.0706
1790139719.9140851,-0.10333,0.0178,-0.99524,0.00747,0.01898,-0.00643
1790139719.998104,0.05113,0.01824,-0.98998,-0.02553,0.03702,-0.02416
1790139720.058144,0.08177,0.00916,-0.99285,-0.01882,0.02695,-0.00892
1790139720.2358444,-0.00885,0.01786,-0.99579,0.01369,-0.0031,0.00424
1790139720.2516382,-0.05537,0.03317,-0.98419,0.01783,-0.00167,-0.00257
1790139720.3647304,-0.03111,0.01329,-1.0078,0.02246,-0.01884,0.01977
1790139720.5009289,0.02629,0.02738,-1.00257,0.03291,0.00612,-0.0277
1790139720.5736043,0.00737,0.02137,-1.02375,0.07315,-0.04291,-0.00775
1790139720.686614,-0.01733,-0.0081,-0.99745,0.00381,0.00085,0.02451
1790139720.8026314,-0.03859,0.0134,-0.98044,0.01845,0.0038,-0.00696
1790139720.89528,-0.03737,-0.00448,-0.98366,0.00842,-0.00634,0.02068
1790139721.023842,0.01363,0.02385,-0.99553,0.01374,-0.01563,0.00315
1790139721.1392772,-0.00871,0.01973,-1.01262,0.00588,0.01581,-0.01559
1790139721.2042546,-0.03129,0.03539,-1.01198,0.01574,0.0181,-0.01113
1790139721.2789588,-0.03221,-0.02079,-1.01973,-0.01531,-0.00399,0.05005
1790139721.439279,-0.01127,-0.01084,-0.99322,-0.00611,0.0082,0.01308
1790139721.6171722,-0.021,0.02998,-0.98843,-0.01949,0.00281,-0.02863
1790139721.6372306,-0.26671,-0.03354,-0.98922,-0.01362,0.00968,0.13832
1790139721.8300567,-0.07062,-0.04329,-0.99905,0.00318,0.01735,-0.03025
1790139721.8300567,-0.00624,-0.0096,-1.00024,-0.00022,0.00919,-0.0343
1790139722.0319107,0.0021,0.00238,-0.99998,0.00415,0.00392,0.00791
1790139722.0420055,-0.00025,0.01171,-0.99982,0.00276,0.00302,-0.00162
1790139722.2283695,-0.00762,0.00972,-1.00089,0.00227,0.00639,-0.00126
1790139722.2439814,-0.00445,0.02327,-1.00077,0.005,0.00565,-0.03013
1790139722.315018,-0.01132,0.00105,-0.99851,0.00371,0.00559,0.0127
1790139722.4461293,-0.01539,-0.00661,-1.00082,0.003,0.00567,0.01165
1790139722.4937992,-0.00816,0.02305,-1.00162,0.00058,0.001,-0.00983
1790139722.6392086,-0.01286,0.00961,-1.00124,0.00289,0.00679,-0.00457
1790139722.8508096,-0.012,0.01212,-1.00131,0.00354,0.00521,-0.00445
1790139722.8508096,-0.01071,-0.00146,-0.99965,0.00564,0.00021,0.00731
1790139723.0616834,-0.01929,0.00556,-0.9988,0.00232,0.00558,0.00453
1790139723.0616834,-0.00768,0.00993,-1.00095,0.00397,0.00786,0.0062
1790139723.2672212,-0.00896,0.01359,-1.0004,0.00565,0.00538,-0.0027
1790139723.2672212,-0.01119,0.01005,-1.00026,0.0037,0.00287,0.00236
1790139723.315219,-0.00749,0.01332,-1.00127,-0.00269,0.00038,-0.00018
1790139723.4598045,-0.01416,-0.00222,-1.00259,-0.00384,0.00722,0.00233
1790139723.6703131,-0.00801,0.02845,-1.00295,0.00359,-0.00071,-0.02368
1790139723.6703131,-0.01055,0.02014,-0.99939,0.00368,0.00528,-0.00246
1790139723.8782978,-0.01059,0.00577,-1.00001,0.00383,0.0045,0.00419
1790139723.8782978,-0.01064,0.00925,-1.00277,9e-05,0.00679,0.00235
1790139724.0851717,-0.01143,0.00997,-0.99977,0.00711,0.00329,0.00307
1790139724.0851717,-0.00775,-0.00449,-1.00004,0.00594,0.00033,0.01643
1790139724.2623627,-0.02281,-0.01123,-1.00155,-0.00256,0.00966,0.01514
1790139724.2623627,-0.01457,0.00978,-1.00026,0.00395,0.0039,0.01055
1790139724.3395495,-0.00892,0.00686,-1.00075,0.00685,0.00791,0.00528
1790139724.4979775,-0.02421,0.01467,-1.00002,0.00508,0.0053,-0.00696
1790139724.6885955,-0.01605,0.00374,-1.00134,0.00335,0.00142,0.00274
1790139724.7043824,-0.00788,0.01547,-1.00126,0.00311,0.00553,-0.00209
1790139724.7110112,-0.01224,0.00857,-1.00167,0.00319,0.00338,0.00478
1790139724.910253,-0.01153,0.01365,-0.99962,0.00373,0.00508,-0.0032
1790139724.910253,-0.01068,0.00773,-0.99904,0.00449,0.00688,0.0028
1790139725.1036654,-0.01191,0.009,-1.00018,0.0036,0.00312,0.00214
1790139725.1197777,-0.01301,0.01391,-1.00164,0.00127,0.00707,-0.00184
1790139725.3214629,-0.01482,0.00872,-1.00003,0.00406,0.0042,0.00105
1790139725.522552,-0.01062,0.01076,-1.00022,0.00047,0.00595,0.00093
1790139725.5263715,-0.01221,0.00956,-0.99922,0.00466,0.00567,0.00287
1790139725.7253451,-0.01174,0.00961,-0.99866,0.00177,0.00951,3e-05
1790139725.734652,-0.01206,0.01059,-1.0013,0.00369,0.00682,0.0006
1790139725.9283862,-0.00917,0.01358,-1.00177,-0.00042,0.00445,-0.01467
1790139725.9283862,-0.00569,0.03774,-1.00193,-0.00782,0.00746,-0.04546
1790139726.1039598,-0.01338,-0.01403,-1.00087,-0.00051,0.00511,0.01889
1790139726.3307962,-0.01042,0.01222,-1.00153,0.00293,0.00582,0.00135
1790139726.3307962,-0.01193,0.02392,-0.9999,0.00301,0.00444,-0.00629
1790139726.5383785,-0.01281,0.01176,-1.00108,0.00258,0.00436,0.00225
1790139726.5562513,-0.01023,0.00801,-1.0022,0.00262,0.01127,-0.00092
1790139726.7480223,-0.01285,0.00738,-1.00048,0.00191,0.00467,0.00766
1790139726.7480223,0.00597,0.03547,-0.9997,0.0103,-0.00194,-0.02482
1790139726.8762286,-0.00857,-0.00088,-1.00093,0.00217,0.00412,-0.00723
1790139726.9573183,-0.01475,0.01296,-0.9989,0.00166,0.00486,0.01228
1790139727.1509643,-0.01189,0.01154,-0.99951,-0.00117,0.00966,-0.00171
1790139727.3440714,-0.01199,0.00938,-1.00018,0.00167,0.00398,0.00241
1790139727.3599157,-0.05764,-0.20033,-0.97924,0.04659,-0.01324,1.60599
1790139727.5698345,-0.02975,-0.0849,-0.98558,0.0039,-0.02593,1.39934
1790139727.5698345,-0.01586,-0.03276,-0.97986,0.02307,-0.01231,1.49495
1790139727.7630303,0.02055,-0.00059,-1.02294,0.01351,-0.01423,1.51559
1790139727.9741194,0.00427,0.03177,-1.01452,-0.00156,-0.01826,1.51669
1790139728.1837747,0.00273,0.01193,-0.98356,0.00332,0.0052,1.57535
1790139728.1837747,0.02367,-0.00511,-0.98284,0.01143,0.00942,1.59353
1790139728.3446007,0.03144,0.00819,-1.01242,0.01579,-0.02057,1.56686
1790139728.5884137,0.02038,0.0843,-0.99925,0.02716,0.02954,0.59365
1790139728.5884137,0.01298,0.07742,-0.99894,0.00214,-0.00267,0.23199
1790139728.5884137,-0.01449,-0.00584,-1.00049,0.00312,0.00582,-0.00436
1790139728.7986386,-0.00913,0.00703,-1.00088,0.00046,0.00556,0.00293
1790139728.8012452,-0.00116,0.01195,-0.99991,0.00179,0.00339,-0.00059
1790139728.9607272,0.00161,0.01019,-1.00089,0.00411,0.00475,0.00044
1790139729.2068527,-0.00403,0.02354,-0.99777,0.00386,0.00629,-0.00314
1790139729.2068527,-0.01172,0.00826,-1.00181,0.00249,0.00363,0.00639
1790139729.3524978,-0.00468,0.01425,-0.99988,0.00547,0.00502,-0.00352
1790139729.421155,-0.00769,0.01153,-0.99912,0.00166,0.00399,0.0001
1790139729.6091416,-0.0079,0.0003,-1.00213,-0.0001,0.00529,0.01406
1790139729.752283,-0.00756,0.02363,-0.99868,0.00862,0.00211,0.0018
1790139729.8530042,0.0052,0.00494,-0.99867,0.00217,0.0102,-0.00028
1790139729.9309566,0.22847,-0.00574,-1.00128,0.01251,0.02822,0.0618
1790139730.0540864,0.16303,0.01672,-0.9788,0.05133,0.0154,-0.01527
1790139730.1070862,-0.05162,0.03174,-1.01329,-0.0095,-0.04302,-0.03804
1790139730.2358305,-0.16359,-0.03207,-1.03487,-0.05328,-0.01278,0.03137
1790139730.3217099,-0.04152,-0.01381,-1.00083,-0.00733,0.02786,-0.00093
1790139730.4288843,0.08168,0.02656,-0.98912,0.00251,0.06001,-0.01837
1790139730.560768,0.0375,-0.00941,-1.01137,-0.02691,0.04437,0.03938
1790139730.6366339,-0.02231,0.02917,-0.9875,0.01106,-0.00281,-0.00152
1790139730.758073,-0.06514,0.02682,-1.02,0.04031,-0.02801,-0.03167
1790139730.877723,-0.02182,0.02643,-1.01863,0.00107,-0.01517,-0.03862
1790139730.9605446,0.02225,-0.00745,-1.01808,-0.0163,-0.0222,0.01625
1790139731.0379794,0.0083,0.0219,-0.99119,-0.01162,-0.01004,-0.01403
1790139731.198766,-0.04385,0.00075,-1.00534,0.00268,-0.01017,0.01727
1790139731.2463725,-0.01775,0.04666,-1.00525,0.0073,0.01408,-0.02627
1790139731.3426008,-0.00286,0.03307,-0.98849,0.00179,0.0188,-0.01219
1790139731.4637082,-0.00139,0.02439,-1.01963,0.01245,0.01387,-0.00352
1790139731.5841765,-0.01369,0.02843,-1.0105,0.03623,-0.02417,-0.01472
1790139731.6485302,-0.04012,0.00204,-1.00298,0.00737,-0.03483,0.03263
1790139731.8669634,-0.02308,-0.00601,-0.97208,-0.00664,0.02047,0.04102
1790139731.8669634,0.02967,0.02583,-0.96699,-0.00031,0.01259,-0.0027
1790139732.0709264,-0.15349,0.01457,-0.98933,-0.0081,0.00492,-0.01108
1790139732.080826,-0.13612,0.007,-1.00048,0.00522,-0.01779,0.05065
1790139732.2713563,-0.01566,0.05085,-1.00118,0.00303,0.00522,-0.00502
1790139732.2713563,-0.01101,0.01485,-0.99976,0.00497,0.00448,-0.0008
1790139732.382883,-0.01199,0.01286,-1.00232,0.00345,0.00294,0.00065
1790139732.4941566,-0.01082,0.01565,-1.00031,0.00426,0.00563,0.00115
1790139732.6780307,-0.01505,0.01754,-1.00133,0.00332,0.00308,-0.00053
1790139732.6914227,-0.01749,-0.00811,-0.99905,0.00698,0.00663,0.03959
1790139732.8021288,-0.01164,0.02173,-1.00081,-0.00084,0.00756,-0.00738
1790139732.8816228,-0.01268,0.01894,-1.00092,0.00413,0.00556,-0.00319
1790139733.0704079,-0.01488,0.01689,-1.00163,0.00186,0.00422,-0.00018
1790139733.2998278,-0.01387,0.01399,-1.0016,0.00374,0.00311,0.00393
1790139733.2998278,-0.0121,0.01669,-1.00138,0.00511,0.00554,-0.008
1790139733.3959708,-0.02129,0.02081,-1.00098,0.00114,0.00646,0.00106
1790139733.411873,-0.01094,0.01275,-1.00137,0.00407,0.00594,0.0015
1790139733.5080278,-0.01321,0.01834,-0.99898,0.00158,0.006,-0.0026
1790139733.706452,-0.01498,0.0129,-1.00149,-0.0013,0.00398,0.0125
1790139733.7173998,-0.0149,0.02196,-1.00194,0.00484,0.0063,0.00148
1790139733.8777652,-0.00675,0.03518,-1.00072,0.00136,0.00955,-0.02671
1790139733.8937051,-0.01159,0.0242,-1.00017,0.00379,0.00366,-0.0129
1790139734.120225,-0.01904,0.00965,-1.00096,-0.00015,0.00091,-0.00897
1790139734.120225,-0.01234,0.01799,-1.0003,0.00297,0.00379,0.0013
1790139734.3141298,-0.01335,0.01707,-1.00041,0.00182,0.00401,0.00245
1790139734.3296866,-0.01308,0.01695,-1.00072,0.00243,0.00452,0.00035
1790139734.428153,-0.01422,0.01526,-1.00032,0.00069,0.00444,8e-05
1790139734.525776,-0.02137,0.03108,-0.99896,-0.00059,0.00276,-0.0165
1790139734.7008338,-0.01441,0.02818,-1.00081,0.00448,0.00531,-0.01649
1790139734.7168088,-0.01123,0.01639,-1.00147,0.00261,0.00808,0.00251
1790139734.9466445,-0.01844,0.01733,-1.0013,0.00493,0.00242,0.00578
1790139735.1369717,-0.01155,0.01787,-0.99995,0.00268,0.00544,-0.00414
1790139735.3459978,-0.01243,0.01489,-1.00094,-0.00067,0.00498,0.00233
1790139735.3459978,-0.01349,0.01633,-0.99947,-0.001,0.00547,0.00227
1790139735.4419737,-0.0116,0.01684,-0.99974,0.00383,0.00662,0.00045
1790139735.555139,-0.00911,0.02131,-1.00126,0.00074,0.00811,-0.00134
1790139735.7547772,-0.00976,0.01764,-0.9997,0.00295,0.00599,-0.00103
1790139735.9585414,-0.01446,0.01695,-1.00031,0.00193,0.00401,0.00094
1790139736.169858,-0.01383,0.01579,-1.00095,0.00219,0.0043,-0.00215
1790139736.169858,-0.01439,0.01488,-0.99972,0.00296,0.00441,0.00086
1790139736.3754838,-0.01848,0.01845,-0.99923,0.00212,0.00487,0.00733
1790139736.5527124,-0.01383,0.03221,-0.99948,-0.00038,0.00165,-0.00756
1790139736.775902,-0.00937,0.01887,-1.00066,-0.0003,0.01031,-0.0293
1790139736.7959158,-0.01162,0.01866,-1.0002,0.00183,0.00893,0.00205
1790139736.9891412,-0.01588,0.01565,-0.99981,0.00561,0.00437,0.0013
1790139736.994258,-0.01154,0.01389,-1.00153,0.00423,0.00718,0.00209
1790139737.1954184,-0.01409,0.01417,-1.00079,0.00531,0.0041,-0.00288
1790139737.1954184,-0.02278,0.01488,-1.00127,0.00381,0.00613,-0.00066
1790139737.3959646,-0.01072,0.03674,-1.00254,-0.00294,0.00182,-0.01637
1790139737.3959646,-0.01817,0.01252,-0.99879,0.00605,0.00044,0.00613
1790139737.6000128,-0.01506,0.01173,-1.00091,0.0051,0.00156,0.00768
1790139737.6278636,-0.01348,0.01535,-1.00144,0.00241,0.00527,0.00335
1790139737.802594,-0.00886,0.03624,-1.002,-0.00153,0.00158,-0.04197
1790139737.8218398,-0.01216,0.0222,-0.99955,0.00264,0.00565,-0.00181
1790139737.984221,-0.01451,0.01485,-1.00135,0.00443,0.00754,-0.00149
