unix_timestamp,acc_x,acc_y,acc_z,gyro_x,gyro_y,gyro_z
1790068928.3655753,-0.00345,0.00573,-0.99852,0.00383,0.00334,0.00033
1790068928.3655753,-0.00428,0.0071,-0.99866,0.00172,0.00357,-0.00033
1790068928.3655753,-0.00369,0.00569,-0.99824,0.0044,0.00352,0.00261
1790068928.5727186,-0.0049,0.00395,-0.99781,0.00281,0.00698,0.0044
1790068928.5727186,-0.00285,0.00587,-1.00025,0.00153,0.00301,-0.00123
1790068928.7737894,-0.00227,0.00513,-0.99752,0.00121,0.00164,0.0011
1790068928.950317,-0.00344,0.00621,-0.99971,0.00297,0.00505,-1e-05
1790068929.190682,-0.00434,0.00597,-0.99802,0.00236,0.00266,-0.00118
1790068929.190682,-0.00309,0.00672,-0.99683,0.00326,0.00562,-0.00223
1790068929.3977494,-0.00266,0.00655,-0.99839,0.00078,0.00415,0.00059
1790068929.5931904,-0.00313,0.00622,-0.99828,0.00183,0.0028,-0.00013
1790068929.794154,-0.00502,0.00391,-0.99909,0.00535,0.0039,0.00197
1790068929.794154,-0.00326,0.009,-0.9991,0.00154,0.00301,6e-05
1790068929.9556036,-0.00353,0.00227,-0.99949,0.0025,0.00548,0.00014
1790068930.0034122,-0.00469,0.00696,-0.99859,0.00508,0.00315,0.00132
1790068930.0988622,-0.00494,0.00561,-0.99773,0.00068,0.00349,0.00031
1790068930.209719,-0.00322,0.00588,-0.99734,0.0003,0.00275,0.00271
1790068930.4208715,-0.0043,0.00613,-0.99779,0.00041,0.00217,0.00109
1790068930.6017618,-0.0044,0.00533,-0.99875,0.00232,0.00098,0.00255
1790068930.6057506,-0.00367,0.0058,-1.00045,0.00096,0.00424,0.0015
1790068930.8266158,-0.00457,0.00387,-1.00099,0.00228,0.00534,0.00288
1790068930.8309712,-0.0054,0.00517,-0.99688,0.00729,0.00441,0.00266
1790068930.9412837,-0.00318,0.00702,-0.99887,0.00016,0.00355,0.00243
1790068931.0367773,-0.00393,0.00664,-0.99821,0.00234,0.00222,2e-05
1790068931.1319523,-0.0039,0.00509,-0.99916,0.00394,0.00349,0.00096
1790068931.2272618,-0.00342,0.00635,-0.99793,-0.00014,0.004,0.00232
1790068931.4336724,-0.00434,0.00297,-0.99792,0.00124,0.00371,0.00075
1790068931.6392887,-0.00711,0.0026,-0.99919,0.00389,0.0018,0.00256
1790068931.8467124,-0.00509,0.00673,-0.99966,0.00245,0.00366,-0.00042
1790068931.8467124,-0.00307,0.00431,-0.99834,0.00195,-0.00034,-0.00121
1790068931.9599557,-0.00967,0.00104,-1.00034,0.00426,0.00669,0.01731
1790068932.023308,0.00266,0.02073,-0.99941,-0.00093,0.00673,-0.0256
1790068932.2620194,-0.0062,0.00031,-0.99785,0.00387,0.00063,0.00825
1790068932.4550772,-0.00304,0.00564,-0.99896,0.00348,0.00338,0.00124
1790068932.673335,-0.00413,0.00726,-0.99993,0.00373,0.00353,0.00031
1790068932.6753423,-0.00581,0.00434,-1.00084,0.00183,0.00429,0.00398
1790068932.8724623,-0.00467,0.00481,-0.99894,0.00146,0.0064,-0.00013
1790068932.8724623,-0.00317,0.00776,-1.00041,0.00242,0.00143,-0.00182
1790068932.9850621,-0.00404,0.00451,-0.99948,0.00177,0.00482,-0.00069
1790068933.0816746,-0.00581,0.00399,-0.99839,0.00358,0.00129,0.00307
1790068933.2778215,-0.00359,0.00637,-0.99995,0.00109,0.00458,-0.00138
1790068933.4854648,-0.00529,0.00559,-0.9993,0.00184,0.00052,0.00161
1790068933.50141,0.00574,0.02741,-0.99932,-0.00262,0.00826,-0.03069
1790068933.6450415,-0.00127,-0.00423,-0.99916,-0.00029,0.00917,0.01202
1790068933.6450415,-0.00028,0.01239,-0.99851,0.00084,0.00222,-0.00436
1790068933.886366,-0.00573,0.00608,-0.99838,0.00454,0.00346,-0.00128
1790068933.9822774,-0.00617,0.00701,-0.99944,0.00381,-0.00195,-0.00086
1790068934.1101992,-0.00477,0.00269,-1.0003,-0.00161,0.00383,0.00576
1790068934.303103,-0.00344,0.00591,-0.99806,0.0017,0.00665,0.00032
1790068934.3131788,-0.00579,-0.00035,-0.99746,0.00532,0.00697,0.02237
1790068934.5137787,0.01316,0.01549,-0.99899,0.005,-0.0036,-0.02313
1790068934.5137787,0.00361,0.01175,-0.99993,0.00226,0.00068,-0.01825
1790068934.7046988,-0.01288,-0.00888,-1.00047,0.00051,0.00319,0.01123
1790068934.714994,-0.00349,0.01034,-0.99845,-0.00042,0.00318,0.0051
1790068934.925078,-0.00134,0.00988,-0.99852,-0.00098,0.00451,-0.0043
1790068934.925078,-0.00596,0.00391,-0.99925,0.00269,0.00522,0.00245
1790068934.9898407,-0.00192,0.00941,-0.99761,0.00772,0.0041,0.00233
1790068935.1019473,-0.00192,0.00941,-0.99761,0.00772,0.0041,0.00233
1790068935.1816006,-0.00383,0.00825,-0.99838,0.0027,0.00502,-0.00453
1790068935.2456846,0.1053,0.00391,-0.99094,-0.0273,0.03115,-0.00802
1790068935.3415015,0.09328,-0.00147,-1.01223,0.00404,-0.04683,-0.00092
1790068935.4375913,-0.09955,0.01251,-0.99023,-0.0036,-0.02238,-0.00531
1790068935.536812,-0.09955,0.01251,-0.99023,-0.0036,-0.02238,-0.00531
1790068935.6786146,0.02125,0.00503,-0.99956,0.00454,0.01086,0.00795
1790068935.7425203,0.09037,0.0206,-0.99837,-0.00383,-0.00798,-0.0005
1790068935.871774,0.02014,0.01089,-1.00875,-0.01005,0.00036,-0.02379
1790068935.9990914,-0.08669,-0.01803,-1.00536,0.02696,-0.00179,0.02837
1790068936.062624,-0.04671,0.02152,-0.97944,0.03001,0.02287,-0.02188
1790068936.1912978,0.00934,-0.00903,-0.99648,-0.00617,-0.00244,0.00132
1790068936.3213289,0.04693,0.02237,-0.98846,0.00834,0.01253,-0.00535
1790068936.3822086,0.00331,0.01609,-1.00452,-0.00221,0.00887,-0.02242
1790068936.4626045,-0.04076,-0.02898,-0.994,-0.03305,0.0019,0.04342
1790068936.559202,-0.04285,0.00581,-1.00681,-0.00854,-0.03271,0.02752
1790068936.722793,0.00012,-0.00344,-1.00614,-0.03106,-0.00804,0.00719
1790068936.7833803,0.01424,-0.00219,-0.9956,0.04258,-0.00723,-0.0011
1790068936.8958724,0.00092,0.03132,-1.00021,0.00723,0.0099,-0.00013
1790068937.0074556,-0.01354,0.03156,-1.00609,-0.01681,0.00808,-0.02675
1790068937.0882783,-0.02138,-0.01722,-1.00814,-0.01376,-0.01405,0.02621
1790068937.1845813,-0.02048,-0.01111,-1.00554,0.01548,-0.01351,0.00428
1790068937.382279,-0.24231,-0.03107,-1.00259,-0.0054,0.02233,0.12198
1790068937.382279,-0.09875,0.03227,-0.99342,-0.01003,0.02396,0.03521
1790068937.5835087,0.00713,-0.00471,-0.99932,0.00124,0.01077,0.00646
1790068937.599449,-0.00765,-0.00176,-0.99964,0.00426,-0.00016,0.01566
1790068937.78987,-0.0122,-0.00456,-0.99643,0.00158,0.00449,0.01766
1790068937.78987,-0.01591,-0.0071,-0.99968,0.00062,0.00256,0.0226
1790068937.9614162,-0.01436,-0.00524,-0.99838,0.00139,0.00423,0.02087
1790068937.997697,-0.01368,-0.0014,-0.99929,0.00212,0.00334,0.01751
1790068938.1419556,-0.0124,-0.00154,-0.99865,0.00173,0.00245,0.01819
1790068938.1901433,-0.01112,-0.00422,-0.99965,0.00316,0.00703,0.01678
1790068938.3994014,-0.01674,-0.00078,-0.99736,-0.00028,0.00413,0.01121
1790068938.6092563,-0.01361,-6e-05,-1.00109,0.00373,0.00137,0.01519
1790068938.8041363,-0.01295,-0.00075,-1.00031,0.00273,0.00428,0.01445
1790068938.819856,-0.00926,0.00244,-0.99999,-0.00027,0.00205,0.01559
1790068938.9812684,-0.00826,0.00334,-0.99618,0.00301,0.00124,-0.001
1790068938.9812684,-0.01475,-0.00119,-0.99932,0.0049,0.00535,0.01178
1790068939.2223012,-0.00885,0.00208,-0.99875,0.00322,0.00657,-0.00081
1790068939.4161084,0.00089,0.02213,-1.00078,0.00197,0.00512,-0.00695
1790068939.4321973,-0.00935,0.00616,-0.99862,0.0015,0.00288,0.00434
1790068939.6366048,-0.01128,0.00462,-0.9999,0.00049,0.00202,0.00991
1790068939.838158,-0.01198,-0.00345,-0.99974,0.00184,0.00606,0.0169
1790068940.0443428,-0.01475,-0.00832,-0.99832,0.00384,0.00632,0.02162
1790068940.0443428,-0.01362,-0.00956,-0.99899,0.00464,0.00551,0.02214
1790068940.253039,-0.01453,-0.00677,-0.99985,0.003,0.00869,0.01469
1790068940.253039,-0.01142,-0.00304,-0.99832,0.00313,0.00528,0.0077
1790068940.4473157,-0.00495,0.00115,-1.00169,-0.00034,0.00384,-0.01101
1790068940.4473157,-0.02091,-0.0191,-1.00022,-0.00436,-0.00438,0.02069
1790068940.6073782,-0.01684,-0.00554,-0.99918,0.00369,0.00216,0.02414
1790068940.6234186,-0.01568,-0.00561,-0.99817,0.00131,0.00343,0.03169
1790068940.8648646,-0.00689,0.01117,-1.00089,-0.00011,0.00619,-0.00294
1790068941.0739574,-0.01358,-0.01219,-0.99743,0.00243,0.00478,0.02113
1790068941.0739574,-0.01347,-0.00319,-0.99863,0.00088,0.00298,0.00494
1790068941.268575,-0.01272,-0.00025,-0.99828,0.00094,0.00334,-0.00044
1790068941.4864414,-0.01277,0.01054,-0.99822,0.00103,0.00537,-0.00799
1790068941.6783278,-0.00848,0.00774,-0.99844,0.00119,0.00583,-0.01124
1790068941.6783278,-0.00505,0.01888,-0.99842,0.00388,0.00344,-0.02321
1790068941.8806603,-0.00284,0.01777,-0.99781,0.00582,0.00652,-0.02275
1790068941.8806603,-0.0044,0.02963,-0.99934,0.00211,0.00664,-0.02103
1790068941.9933774,-0.01282,-0.00127,-0.9996,0.00228,0.00356,0.01163
1790068942.0898983,-0.01323,-0.00188,-0.99896,0.00391,-0.00073,0.01572
1790068942.1440012,-0.01388,-0.00635,-1.00065,0.0005,0.00493,0.02521
1790068942.2516832,0.20993,0.05012,-1.0033,0.0007,0.04595,-0.11282
1790068942.3791873,0.17151,-0.0282,-1.00014,0.04328,0.00883,0.0145
1790068942.4646902,0.01809,0.03148,-0.99154,-0.01091,-0.02032,-0.00793
1790068942.5860422,-0.08299,-0.01216,-1.01938,-0.0232,0.00089,0.0197
1790068942.6343632,-0.08299,-0.01216,-1.01938,-0.0232,0.00089,0.0197
1790068942.7626083,0.03826,-0.00906,-1.00604,-0.01614,-0.00332,0.04328
1790068942.8428912,-0.00559,-0.00998,-1.00383,0.03678,0.01343,0.01004
1790068942.956119,-0.05658,0.00994,-0.99908,-0.00987,0.02265,0.00749
1790068943.0846822,-0.02723,0.00971,-0.99577,-0.01368,0.01871,-0.00174
1790068943.1653326,0.01519,0.00501,-1.00408,-0.02275,0.02974,-0.01068
1790068943.3087435,0.0324,0.0109,-0.98955,-0.00174,0.00423,-0.013
1790068943.3571692,-0.02735,0.0037,-0.99483,0.0188,-0.01617,0.01195
1790068943.4861138,-0.01528,0.01901,-0.98578,-0.00741,0.00903,-0.02249
1790068943.60106,0.00135,0.02135,-1.00026,0.03114,-0.00963,-0.01356
1790068943.679606,0.00116,0.00235,-1.01387,-0.01172,-0.00065,0.03224
1790068943.7913625,-0.01108,-0.00422,-0.99781,-0.02283,-0.0039,0.01045
1790068943.9205198,-0.0112,0.01092,-0.98845,-0.01957,-0.00663,-0.01338
1790068944.001042,-0.02658,-0.00969,-0.99497,0.02035,-0.00038,0.0045
1790068944.0823653,-0.00373,0.03072,-0.99622,0.03195,0.01824,-0.01606
1790068944.3410468,-0.04865,-0.00517,-0.98443,0.00337,-0.03815,0.03252
1790068944.3410468,-0.17386,-0.01505,-0.99896,-0.01053,0.00945,0.08022
1790068944.5504847,-0.05899,0.01019,-0.99618,0.01228,0.02224,0.02053
1790068944.5663478,-0.01932,0.00832,-0.99935,0.00581,0.0072,-0.00094
1790068944.7431867,-0.01202,0.00563,-1.00011,0.00139,0.00449,-0.00132
1790068944.7832289,-0.0091,0.00638,-0.99846,0.00027,0.00518,0.00098
1790068944.96443,-0.00759,0.01358,-0.99943,0.00287,0.00953,0.00033
1790068945.0046008,-0.01315,-0.00107,-1.00159,0.0038,0.00577,0.00835
1790068945.160837,-0.01158,0.00923,-1.0005,-0.00048,0.00419,-0.00189
1790068945.3185716,-0.00899,0.00653,-0.99918,-0.00074,0.00648,-0.00199
1790068945.3420005,-0.01114,0.00507,-0.99976,0.00262,0.00249,0.0027
1790068945.5691247,-0.00976,0.00964,-0.99886,0.00035,0.0047,-0.00037
1790068945.5691247,-0.01334,0.01864,-0.9995,0.00032,0.00564,-0.00946
1790068945.7782335,-0.0081,0.00769,-0.99956,0.0029,0.00451,-0.00064
1790068945.97207,-0.00926,0.00308,-0.99766,0.00313,0.00228,-0.00129
1790068945.9897816,-0.01211,0.00563,-1.00015,0.00024,0.00706,0.00214
1790068946.0842314,-0.00966,0.00739,-0.99943,0.00094,0.00493,0.00015
1790068946.164939,-0.01039,0.01523,-0.9984,5e-05,0.00739,-0.0043
1790068946.3917134,-0.0131,-0.00243,-0.999,0.0004,0.00315,-0.00538
1790068946.3917134,-0.00746,0.01485,-0.99833,-0.00173,0.00838,-0.00049
1790068946.423929,-0.00652,0.01582,-0.99867,0.00125,-0.00015,-0.0046
1790068946.6013696,-0.01126,0.00527,-0.99848,0.00448,0.00298,0.00505
1790068946.795121,-0.01068,0.00492,-1.00036,0.00326,0.00359,0.00107
1790068947.003933,-0.00946,0.00648,-1.00095,0.00187,0.00182,0.00122
1790068947.003933,-0.00848,0.00603,-0.99952,0.00115,0.00469,0.00414
1790068947.0842788,-0.00944,0.00645,-0.99844,0.00193,0.00615,0.00196
1790068947.1975918,-0.01196,0.0056,-1.00142,0.00167,0.00137,0.00253
1790068947.409529,-0.00846,0.0086,-0.99788,0.00282,0.00672,0.00117
1790068947.409529,-0.00924,0.00938,-0.99888,0.00164,0.00336,-0.0005
1790068947.5911758,-0.01435,-0.00859,-0.99778,0.00722,0.00105,0.00983
1790068947.6011276,-0.01828,-0.03028,-0.99872,0.00356,0.00712,0.02675
1790068947.8225858,-0.00933,0.00697,-0.99885,0.00418,0.00489,-0.00307
1790068948.0342884,-0.01406,0.00328,-1.00136,-0.00049,0.00165,0.00299
1790068948.0965886,-0.00867,0.00845,-0.99824,-0.00091,0.0043,0.00283
1790068948.209034,-0.015,0.00942,-0.99793,0.0017,0.00379,0.00057
1790068948.43547,-0.01173,0.00746,-0.99854,9e-05,0.0084,0.00588
1790068948.5317323,-0.01399,0.00263,-0.99916,0.00234,0.00347,0.00141
1790068948.6465108,-0.00733,0.00939,-0.99768,0.00313,0.00198,-0.00166
1790068948.8366067,0.0351,0.05521,-1.01694,-0.02706,-0.05158,1.44646
1790068948.8524492,-0.00332,-0.05932,-1.01367,-0.0143,-0.01948,1.42625
1790068949.1119573,0.03313,0.00477,-0.99607,0.01106,0.00211,1.4404
1790068949.1119573,-0.01866,-0.01767,-0.98944,-0.00606,-0.01365,1.55326
1790068949.2569869,0.0023,-0.01679,-0.97024,0.01529,0.02096,1.57281
1790068949.4655123,0.01963,-0.01611,-0.99688,-0.03936,-0.01417,1.58409
1790068949.4675236,0.0256,0.01958,-1.04613,-0.0456,-0.02621,1.50826
1790068949.670771,0.01366,0.00342,-0.99471,0.00687,-0.00282,1.53236
1790068949.670771,0.01136,-0.01808,-1.00169,-0.02126,-0.01003,1.61932
1790068949.862357,-0.0284,-0.01797,-0.99745,0.01253,-0.01132,0.65975
1790068949.8824074,0.01248,0.06918,-0.99863,0.0104,0.00773,0.12229
1790068950.072642,-0.00774,0.01606,-0.99715,0.00252,0.00699,0.0098
1790068950.0833695,-0.00593,0.01147,-0.99899,0.00453,0.00064,0.00284
1790068950.1206279,-0.00785,0.00838,-0.99854,0.00025,0.00675,0.00162
1790068950.284809,-0.00671,0.01215,-0.99807,0.00545,0.00483,0.00112
1790068950.4856396,-0.0079,0.01074,-0.99748,0.00339,0.00494,0.00202
1790068950.4856396,-0.00843,0.00227,-0.99958,0.00611,0.00324,-0.01444
1790068950.6923738,-0.004,0.01003,-0.99883,-0.00062,0.00294,-0.01033
1790068950.7887747,-0.00821,0.01053,-0.99789,0.00195,0.00324,0.00092
1790068950.9013863,-0.00819,0.01109,-1.00006,0.00299,0.00472,0.00191
1790068950.988012,-0.01888,0.01328,-0.99847,0.00285,0.00987,-0.00278
1790068951.0457542,-0.00269,0.02412,-0.99891,0.00652,-0.00386,-0.0143
1790068951.1586626,0.20475,0.01132,-1.00967,0.00777,0.00809,-0.00197
1790068951.2387369,0.1989,0.02381,-0.99537,0.02341,-0.02045,-0.04645
1790068951.3663945,-0.14874,0.01042,-0.94653,-0.01163,0.03556,0.01192
1790068951.4897752,-0.07503,0.02058,-0.97457,-0.01364,0.00226,0.00999
1790068951.5592904,0.05514,0.01816,-0.99283,0.00389,0.02189,0.00734
1790068951.6722517,0.07501,-0.00131,-0.96705,-0.01539,0.02562,0.00305
1790068951.799752,-0.02948,0.0313,-1.00132,-0.00023,-0.00342,-0.02128
1790068951.8793073,-0.07614,0.00328,-0.99825,-0.02115,0.05389,0.01412
1790068951.9917705,-0.04989,-0.01661,-1.02075,-0.01377,-0.00507,0.03277
1790068952.1353636,0.02033,0.00046,-1.02087,0.03019,0.01226,0.01227
1790068952.1992087,0.02645,0.02445,-0.99005,0.00218,0.02673,-0.02526
1790068952.3122473,-0.00998,0.022,-0.9642,0.00102,0.02848,-0.00407
1790068952.3763714,-0.03794,0.01861,-1.00064,-0.00055,0.01764,-0.00286
1790068952.5204015,-0.01726,0.00116,-1.01216,0.00342,0.02816,0.01494
1790068952.5849192,-0.00381,-0.00242,-1.01453,0.01237,0.01468,-0.01759
1790068952.7292829,-0.00666,-0.01209,-1.02703,-0.00819,-0.0345,0.01582
1790068952.8274016,-0.01164,0.01376,-0.99232,-0.00768,-0.02444,-0.01647
1790068952.9033055,-0.01293,0.02623,-0.99641,0.0011,-0.00193,-0.00314
1790068953.1601639,-0.00806,0.02058,-0.9992,-0.00452,0.02003,-0.00458
1790068953.1601639,-0.05002,0.03858,-1.00196,-0.00401,-0.0407,-0.03836
1790068953.2589455,-0.19843,-0.01543,-0.99058,0.02213,0.00469,-0.01752
1790068953.3691952,-0.05126,0.00357,-1.00406,0.00229,0.01199,-0.0131
1790068953.5615606,-0.0217,-0.00327,-1.00099,0.00365,0.00744,0.01336
1790068953.5615606,-0.0046,0.01554,-0.99883,0.00359,0.00596,-0.00521
1790068953.6830342,-0.00672,0.00835,-0.99895,0.00692,0.00494,0.00296
1790068953.769908,-0.0054,0.01239,-0.99948,-0.00034,0.00467,-0.00048
1790068953.866283,-0.00117,0.03503,-0.99789,0.00202,0.0059,-0.05516
1790068953.962925,0.00248,0.02953,-0.99747,0.00201,0.00472,-0.02555
1790068954.1239843,-0.0086,0.0004,-0.99892,0.00424,0.00729,0.02578
1790068954.1401393,-0.00685,0.01129,-1.00019,0.00408,0.00062,-0.00119
1790068954.3818111,-0.00684,0.01205,-0.99935,0.00114,0.00413,-0.00198
1790068954.5755663,-0.00882,0.01386,-0.9985,0.00249,0.00461,0.00364
1790068954.5755663,-0.00612,0.01032,-0.99763,0.00034,0.00545,0.00253
1790068954.785246,-0.00648,0.00866,-0.99935,0.00114,0.00234,0.00024
1790068954.785246,-0.00764,0.00869,-1.0018,-0.001,0.00302,-0.00058
1790068954.969585,-0.0097,0.01041,-0.99998,0.00216,0.00708,0.00034
1790068954.9774375,-0.00244,0.04366,-0.99741,0.00434,0.00318,-0.04031
1790068955.170028,-0.00796,-0.0045,-0.99996,0.00274,0.00333,-0.00515
1790068955.3952982,-0.00614,0.01797,-0.9996,0.00236,-0.00159,-0.00259
1790068955.609564,-0.00914,0.01009,-0.99939,0.00527,0.00426,0.00259
1790068955.609564,-0.00545,0.01144,-0.99843,0.00214,0.00582,0.00034
1790068955.8131104,-0.00751,0.00831,-0.99827,0.00142,0.00399,0.00039
1790068955.8131104,-0.00738,0.01183,-0.99918,0.00299,0.00508,-0.00063
1790068956.0106518,-0.00617,0.01069,-0.99823,0.00424,0.00415,-0.00108
1790068956.0106518,-0.00643,0.00947,-0.99828,0.00272,0.00384,0.00229
1790068956.1850803,-0.00857,0.01224,-0.99879,0.00309,0.00246,-0.00251
1790068956.201106,-0.00673,0.0084,-0.99887,0.00058,0.0031,-0.00048
1790068956.3624618,-0.01275,-0.00257,-0.99759,0.00327,0.00966,0.00603
1790068956.3784175,-0.0143,-0.01363,-0.99891,0.00349,0.01093,0.02887
1790068956.6193476,-0.01247,0.00089,-0.99734,0.00454,-0.00491,0.00317
1790068956.635214,-0.0107,0.00101,-1.00043,0.00264,0.00564,0.00607
1790068956.8271635,-0.00519,0.01378,-0.99704,0.00197,0.00781,-0.00321
1790068956.8271635,-0.00666,0.0096,-0.99938,0.00076,0.0055,-0.00023
1790068957.0368278,-0.00778,0.00931,-0.99904,0.00397,0.00415,0.00101
1790068957.0368278,-0.00493,0.02608,-0.9996,0.00041,0.00187,-0.03642
1790068957.1484466,-0.01364,-0.01289,-0.99829,0.00569,0.00336,0.04517
1790068957.1655493,-0.00961,-0.00579,-0.99756,0.00128,0.00981,0.01134
1790068957.4527738,-0.00869,0.01888,-0.99776,0.00326,0.0005,4e-05
1790068957.4527738,-0.00886,0.01072,-0.9985,0.00236,0.00384,0.00158
1790068957.6465044,-0.1544,-0.3975,-0.98996,0.06357,-0.01573,1.61265
1790068957.6625514,0.0086,-0.02031,-0.98968,0.02091,0.02261,1.2755
1790068957.8562315,0.00519,0.00011,-1.01079,-0.01235,-0.01124,1.52042
1790068958.0639179,-0.00164,-0.04189,-1.00656,0.01698,-0.01406,1.55766
1790068958.0795915,0.02881,0.01335,-0.98946,0.01768,0.00772,1.51894
1790068958.2225072,0.02897,-0.0105,-0.98457,-0.01815,0.00516,1.56694
1790068958.2859824,0.02351,0.00322,-0.97233,0.0713,-0.0048,1.5154
1790068958.4632232,0.00528,-0.00407,-1.02785,-0.02129,0.01015,1.60236
1790068958.671822,0.00828,-0.02312,-1.00462,0.03539,-0.02619,1.59368
1790068958.8804684,0.02982,-0.02132,-0.9723,0.00716,-0.01389,1.62489
1790068959.0896628,0.01508,0.0003,-1.0107,0.00936,-0.02112,1.57051
1790068959.1057844,0.0011,-0.00203,-1.01725,-0.02094,-0.02644,1.62482
1790068959.2248924,0.03032,-0.00108,-1.00439,-0.01578,-0.04119,1.57742
1790068959.299659,0.02442,-0.01065,-0.98082,0.01157,-0.01104,1.53445
1790068959.4927597,0.0179,-0.00184,-0.97105,0.04052,0.01497,1.53788
1790068959.701848,0.01306,0.07326,-0.99759,0.00082,-0.00381,0.25038
1790068959.895642,-0.01603,-0.01111,-1.0003,0.0087,0.00963,-0.00213
1790068959.9115384,-0.00464,0.00497,-1.00037,0.00359,0.00272,0.00083
1790068960.023713,-0.00432,0.00485,-0.99762,0.00273,0.00457,-0.00083
1790068960.2295337,-0.00799,0.00812,-0.99856,0.00479,0.00426,-0.00535
1790068960.3213558,0.00319,0.00857,-0.99825,0.00346,0.00499,-0.00603
1790068960.5125468,-0.00709,0.00395,-0.99893,3e-05,0.00167,0.00428
1790068960.5125468,-0.01018,0.00582,-0.99937,0.00377,0.00521,-0.00164
1790068960.730446,-0.00749,0.00557,-0.99815,0.00588,0.00355,0.00076
1790068960.9311616,-0.00823,0.00617,-1.00003,0.00419,0.00198,0.00176
1790068960.9311616,-0.01007,0.00313,-0.99848,0.00267,0.00546,-0.00137
1790068961.1381109,-0.00748,0.00499,-0.99901,0.00484,0.00248,0.00107
1790068961.1381109,-0.00364,0.00734,-1.00036,0.00561,-0.0052,-0.04116
1790068961.2347064,0.00024,-0.00316,-0.99873,0.00148,0.00482,0.00769
1790068961.3219607,-0.00837,0.01054,-1.00038,0.00422,0.00215,0.00318
1790068961.459299,0.07856,0.00778,-0.99388,0.01148,0.02351,-0.00339
1790068961.5229573,0.24201,0.03726,-0.99357,0.00072,0.00991,-0.06745
1790068961.6343718,0.09281,-0.02683,-0.9681,0.00637,-0.03559,0.04926
1790068961.7455359,-0.08416,0.01004,-1.0305,0.00217,-0.03226,0.01613
1790068961.8456118,-0.13382,0.00624,-1.01444,-0.03793,-0.01222,0.01019
1790068962.0152721,-0.00633,-0.00512,-0.99695,-0.04167,0.00152,0.02016
1790068962.0152721,0.07204,-0.00382,-1.00616,-0.01733,-0.00929,0.00179
1790068962.1592238,0.02192,0.02891,-0.9716,0.04302,0.02067,-0.03505
1790068962.2229848,-0.05764,0.00699,-0.99509,0.0165,0.01455,0.00143
1790068962.336683,-0.04565,0.01484,-0.99317,0.02553,0.0133,0.00258
1790068962.4793565,0.00923,-0.00176,-0.99872,0.01501,0.03817,0.02162
1790068962.5437698,0.02793,0.01041,-0.99774,-0.0216,0.03727,0.01426
1790068962.6557274,-0.00314,-0.00175,-1.01238,-0.02671,0.00833,0.00098
1790068962.7677698,-0.03241,-0.00832,-0.98518,0.00409,0.01955,0.00217
1790068962.8632896,-0.00673,0.05146,-0.97588,0.00035,0.03311,-0.02619
1790068962.991252,0.03343,0.01539,-0.98644,0.02246,0.00389,-0.00281
1790068963.1035929,0.00546,-0.00588,-1.01338,0.0045,-0.00994,0.02553
1790068963.1671288,-0.01423,0.02833,-1.00158,0.00949,0.03316,-0.02311
1790068963.2472866,-0.01999,0.00505,-0.99422,-0.00195,0.00518,-0.00503
1790068963.4050932,0.004,0.00343,-0.97982,-0.01313,-0.002,0.01235
1790068963.5971382,0.004,0.00343,-0.97982,-0.01313,-0.002,0.01235
1790068963.7897656,0.00673,-0.00955,-1.00058,0.00717,0.01107,-0.01549
1790068963.9981458,-0.01267,-0.0072,-0.99826,0.00332,0.00636,0.0157
1790068964.205542,-0.01165,0.01261,-0.9983,0.00363,0.00605,-0.00906
1790068964.2534466,-0.00643,0.00994,-0.99831,0.0025,0.00408,0.00159
1790068964.4158874,-0.00825,0.00215,-0.99753,0.00239,0.0024,0.01688
1790068964.576599,-0.0108,-0.00118,-0.99966,0.00336,0.00573,0.02165
1790068964.8132334,0.0056,0.00932,-0.99893,0.00323,0.01108,-0.00354
1790068964.8132334,-0.00694,0.01979,-0.99866,-0.00179,0.00444,-0.01714
1790068965.0199225,-1e-05,0.01788,-0.99851,0.0034,0.00684,-0.01458
1790068965.0199225,-0.00227,0.01399,-0.99966,0.00193,0.0045,-0.00322
1790068965.2269554,-0.00673,0.00797,-0.99742,0.00249,0.00488,0.00761
1790068965.38729,-0.00487,0.00725,-1.00076,0.00101,0.00156,0.00389
1790068965.4033813,-6e-05,0.0089,-0.99886,0.0011,0.00549,-0.04475
1790068965.6436348,-0.00457,0.00463,-0.99781,0.00275,0.00503,-0.00877
1790068965.8505483,-0.00736,0.01044,-1.00078,0.00339,0.00613,-0.01671
1790068966.02765,-0.00227,0.02155,-0.99798,0.00087,0.00223,-0.02478
1790068966.02765,-0.00056,0.02011,-0.99898,-0.00025,0.004,-0.0196
1790068966.2533278,-0.00055,0.02128,-0.99969,0.00291,0.00492,-0.02207
1790068966.2533278,-0.00396,0.0176,-0.99985,0.00381,0.00382,-0.01213
1790068966.285782,-0.00364,0.01457,-0.99807,0.00271,0.00369,-0.00021
1790068966.4636126,-0.0081,0.00337,-0.99715,0.00156,0.0035,0.01106
1790068966.6581452,-0.00888,-0.00151,-0.99765,0.00391,0.00279,0.02151
1790068966.6581452,-0.01049,-0.00446,-0.99816,0.00111,0.00203,0.0235
1790068966.855132,-0.00654,-0.00118,-0.99779,0.0051,0.00553,-0.00535
1790068967.0103412,-0.0046,0.02217,-1.00013,0.00313,-0.00024,-0.02252
1790068967.024266,-0.00258,0.02029,-0.9984,0.00673,0.00471,-0.01534
1790068967.2817917,0.00145,0.02379,-0.99824,0.00362,0.00208,-0.02088
1790068967.2817917,0.00089,0.0162,-0.99942,0.00154,0.00568,-0.01796
1790068967.4740648,-0.00438,0.01538,-0.99919,0.00217,0.0038,-0.02381
1790068967.4740648,-0.00199,0.02457,-0.99964,-0.00011,0.0053,-0.02451
1790068967.682175,0.00018,0.01913,-1.00042,0.00208,0.0047,-0.0239
1790068967.6979048,-0.0054,-0.01032,-0.99854,0.00542,0.01104,0.01404
1790068967.8107188,-0.01185,-0.00076,-0.99909,0.00376,0.00551,0.0146
1790068968.0607755,-0.00911,-0.00411,-0.99893,0.00167,0.00408,0.0084
1790068968.2903252,-0.00324,0.01236,-0.9999,-0.00247,0.00354,-0.02242
1790068968.3060412,-0.00095,0.01938,-0.99788,0.00348,0.00278,-0.02314
1790068968.325818,-0.03036,-0.12046,-0.97539,0.02826,0.04186,-1.29414
1790068968.514389,0.02077,0.00226,-0.99948,0.03012,0.04865,-1.44854
1790068968.7193651,0.02527,0.00795,-0.99615,-0.02266,0.0315,-1.53064
1790068968.7193651,0.02621,0.01005,-0.97642,-0.02385,0.03299,-1.56481
1790068968.9134364,0.03587,0.05806,-1.01334,-0.02623,-0.01912,-1.62021
1790068969.1195476,0.01469,-0.02725,-0.99975,0.00808,0.02853,-1.57038
1790068969.2947423,0.04087,0.00562,-0.99763,-0.00129,0.02013,-1.5734
1790068969.2947423,-0.00634,-0.0696,-0.99901,0.02123,-0.00844,-1.34028
1790068969.5325124,-0.01464,-0.03732,-0.99917,0.00078,0.00865,0.04143
1790068969.5325124,-0.00489,0.00867,-0.99933,0.00345,0.00772,0.00282
1790068969.7362053,-0.00696,-0.00076,-0.99976,0.00036,0.00402,0.02945
1790068969.7362053,-0.0078,0.01838,-0.9995,0.00509,0.00508,-0.00753
1790068969.9460678,-0.00598,0.00482,-1.00063,0.00025,0.00304,0.00538
1790068970.1394284,-0.00314,0.01107,-0.9989,0.00356,0.00116,-0.00214
1790068970.1394284,-0.0056,0.00823,-0.99807,0.00387,0.00411,0.00198
1790068970.1664598,0.00138,0.00063,-1.00039,0.00356,0.00444,0.00612
1790068970.2667532,0.00244,0.02671,-0.99728,0.00185,0.00529,-0.02062
1790068970.379449,0.0463,-0.00732,-0.99848,-0.00024,0.02,0.01316
1790068970.4596457,0.22415,0.0248,-1.0076,0.00763,-0.00261,0.01825
1790068970.5561426,0.10196,-0.02268,-0.9882,0.03523,-0.04796,0.0122
1790068970.6986058,-0.03922,0.01073,-0.99858,-0.01345,-0.0304,0.01798
1790068970.7624686,-0.15196,0.00762,-1.04026,0.00848,-0.01771,0.0019
1790068970.890424,-0.03529,-0.00453,-1.00405,0.02276,0.00743,0.05317
1790068970.9542644,0.05963,-0.00945,-1.02352,0.02012,-0.0276,0.02883
1790068971.0977938,0.02642,0.01781,-0.97612,0.03636,-0.01901,0.00784
1790068971.1624305,-0.03809,0.01059,-0.9869,0.00973,0.00691,-0.01456
1790068971.2747266,-0.06787,-0.0129,-1.00179,0.01161,0.00881,0.04394
1790068971.3866038,-0.00885,0.04207,-1.00013,0.00338,0.01362,-0.0301
1790068971.486863,0.04163,0.0348,-1.00737,0.01425,0.01133,-0.03604
1790068971.5793693,0.0045,0.01061,-1.03618,-0.00943,-0.01156,0.00227
1790068971.7235072,-0.04203,0.00319,-0.98596,0.01023,0.00247,0.01019
1790068971.851169,-0.00738,0.03532,-0.95843,0.0,0.0434,-0.01947
1790068971.915582,0.00166,-0.00079,-0.99345,0.00278,0.00663,0.01783
1790068972.0443525,0.02031,-0.0055,-1.0055,-0.01331,0.01632,0.01288
1790068972.1091073,0.00653,0.02407,-1.00405,-0.01629,0.00957,-0.00842
1790068972.1728637,-0.02316,0.00638,-1.00686,0.02143,-0.02284,0.0052
1790068972.3175583,-0.02557,-0.0057,-0.99121,0.00342,-0.00793,0.01312
1790068972.3977137,-0.00036,0.02714,-0.98854,-0.00538,0.00298,-0.04161
1790068972.6062317,-0.19415,0.00015,-0.97586,0.00533,0.01801,-0.05012
1790068972.6062317,-0.17528,0.09976,-0.99752,-0.006,0.01038,0.03479
1790068972.8011649,0.02869,0.02867,-0.99325,0.00458,0.02807,-0.06162
1790068972.929712,0.00435,0.01114,-1.00081,0.00089,0.00461,-0.00528
1790068973.010621,0.0003,0.00867,-0.99901,0.00275,0.00481,0.00409
1790068973.224172,-0.00146,0.01374,-0.99876,0.00262,0.00196,-0.00115
1790068973.224172,-0.01422,-0.00471,-1.00007,0.00687,-0.00432,-0.00699
1790068973.336628,-0.00699,0.01591,-0.99961,0.00194,0.00701,0.00767
1790068973.4166238,-0.00698,0.0096,-0.9986,0.00289,0.00309,-0.00244
1790068973.5787003,-0.01011,-0.01058,-0.99856,0.00339,0.00559,0.03223
1790068973.5929017,-0.00626,0.00973,-0.99737,0.00212,0.00244,-0.00308
1790068973.8326437,0.00251,0.00759,-1.00106,0.00364,0.00518,0.0053
1790068973.840734,-0.01151,0.01213,-0.99835,0.00239,0.00151,0.00062
1790068974.0384297,-0.00321,0.01209,-0.99715,0.00194,0.00238,0.00095
1790068974.2455266,-0.00825,0.0107,-0.99859,0.00583,0.00544,-6e-05
1790068974.326474,-0.00713,0.01298,-0.99897,0.00463,0.0051,0.00168
1790068974.326474,-0.00725,0.00524,-1.00057,0.00427,-0.00232,0.00124
1790068974.422644,-0.00824,0.00147,-0.99986,0.00027,0.00408,-0.0109
1790068974.6515675,-0.01212,-0.00025,-0.9982,0.00329,0.00214,0.00635
1790068974.8568292,-0.00717,0.008,-0.9997,0.00419,0.00014,0.00157
1790068974.8568292,-0.00608,0.01201,-0.99911,0.00306,0.00304,-0.00235
1790068975.0641446,-0.00618,0.00991,-0.99862,0.00434,0.00141,-0.00151
1790068975.0641446,-0.00871,0.00918,-0.99896,0.00509,0.00402,0.00253
1790068975.2722464,-0.00732,0.01275,-1.00014,0.00307,0.00455,-0.00017
1790068975.4660728,-0.00729,0.00879,-0.99986,0.00071,0.00306,-0.00047
1790068975.4761024,-0.00647,0.01155,-0.99923,-0.00114,0.00245,0.00416
1790068975.6846073,-0.00743,0.01218,-0.99892,0.00303,0.00473,0.00266
1790068975.885397,-0.0057,0.01098,-1.00061,0.00204,0.00409,-3e-05
1790068975.886397,0.00064,0.02934,-0.99824,0.00216,0.01063,-0.02198
1790068976.0441802,-0.00316,-0.00238,-0.99786,1e-05,0.01948,0.01181
1790068976.0599525,-0.00484,0.01074,-0.99924,0.00255,0.00261,-0.00267
1790068976.2888536,-0.00597,0.01625,-0.99701,0.00605,0.00252,-0.00657
1790068976.3628554,-0.00915,0.0069,-0.99937,0.00093,0.00498,0.00076
1790068976.4902954,-0.00554,0.00709,-0.99846,0.00206,0.00622,0.00366
1790068976.6979148,-0.0131,-0.00394,-0.99779,0.0051,0.00665,0.03361
1790068976.8113198,0.00424,0.02339,-0.99975,0.00184,-0.00337,-0.0272
1790068976.9042468,-0.00772,0.01486,-0.99867,0.00403,0.00026,-0.00738
1790068977.0161731,-0.01111,-0.00251,-0.99731,-0.00063,0.00672,0.01772
1790068977.1440258,-0.00483,0.014,-0.99839,0.00275,0.00334,0.00012
1790068977.1617122,0.15988,0.01671,-0.99473,-0.00192,0.03963,-0.00339
1790068977.274055,0.21765,0.00665,-1.00358,0.00248,-0.01462,-0.07365
1790068977.367415,0.02285,-0.02469,-0.96167,-0.02075,-0.013,0.05026
1790068977.4792016,-0.12064,0.01722,-1.02814,0.02425,-0.04156,0.01863
1790068977.5934935,-0.1007,0.03382,-1.01473,-0.02786,-0.02079,-0.01936
1790068977.6555226,0.03924,0.00753,-1.0065,0.0018,0.00337,0.02118
1790068977.7986653,0.08363,0.02187,-1.02313,0.0124,-0.02733,-0.01764
1790068977.8624773,-0.01724,0.02441,-0.98456,0.05325,0.03897,0.00564
1790068977.9741602,-0.06102,0.0172,-0.99057,0.02037,-0.01703,-0.00773
1790068978.1016548,-0.07143,-0.0091,-1.00536,0.01087,0.01956,0.03887
1790068978.181314,0.02645,0.00203,-0.99667,0.00123,0.0001,0.03833
1790068978.3096466,0.03955,0.0153,-1.00626,0.00458,0.00302,-0.02792
1790068978.4227953,-0.02736,0.00071,-1.01983,-0.03132,-0.04392,0.0298
1790068978.5021145,-0.05237,-0.00651,-0.99316,0.00405,0.05063,0.00271
1790068978.6146867,0.00182,0.0408,-0.96531,0.0126,0.03532,-0.03597
1790068978.7597787,0.02753,0.01024,-0.98502,0.01469,0.01629,0.00117
1790068978.8079886,0.01504,0.01432,-1.01582,0.00599,-0.00683,0.00823
1790068978.904469,-0.00827,0.00616,-1.00861,0.003,0.00672,0.01192
1790068979.0164344,-0.03246,0.00442,-1.00099,-0.00514,-0.03355,0.02629
1790068979.155498,-0.02388,0.0113,-0.99828,0.01706,0.00768,-0.02108
1790068979.368341,-0.0351,0.01489,-1.00066,0.01322,-0.01706,-0.03555
1790068979.368341,-0.23842,0.0432,-0.99607,-0.01198,0.00433,-0.00031
1790068979.5618708,-0.10204,0.00288,-0.99751,-0.00189,-0.00541,0.07471
1790068979.5779383,-0.00124,0.02717,-0.99938,0.00814,0.00598,-0.01785
1790068979.7704303,-0.00104,0.01176,-0.9983,0.00602,0.0053,-0.0008
1790068979.7704303,-0.00575,0.01314,-0.99789,0.00409,0.00498,0.00144
1790068979.9741879,-0.01077,0.01071,-0.99947,0.0024,0.00295,0.00399
1790068979.9741879,-0.01482,0.00777,-0.99762,0.00277,0.00472,0.00954
1790068980.0862944,-0.01191,0.00598,-0.99797,0.00243,0.00406,0.01204
1790068980.1016014,-0.01297,0.00406,-0.9978,0.0018,0.00322,0.01419
1790068980.2782433,-0.01207,0.00276,-0.99887,0.00271,0.00507,0.01122
1790068980.3743303,-0.01472,0.00564,-0.99934,0.00152,0.00506,0.0099
1790068980.5985262,-0.00637,-0.00237,-0.99855,0.00183,0.00026,0.00668
1790068980.7923496,-0.00885,0.00576,-0.99909,0.00301,0.00528,0.00944
1790068980.9986255,-0.01328,0.0065,-0.99698,0.00199,0.00479,0.00966
1790068981.0041184,-0.0124,0.01122,-0.99823,0.0006,0.0054,0.00396
1790068981.1580906,-0.00488,0.0274,-0.99898,-0.0003,0.00857,-0.00845
1790068981.2048686,-0.00402,0.03085,-0.99916,-0.00044,0.00312,-0.01647
1790068981.2369146,-0.00666,0.01259,-0.99893,0.00364,0.00543,0.00164
1790068981.3818262,-0.00725,0.01736,-0.99909,0.00551,0.00925,0.01926
1790068981.6077726,-0.01102,0.01224,-1.00015,0.00071,0.00432,-0.00748
1790068981.81598,-0.01246,0.01903,-0.99814,0.00398,0.00113,-0.01289
1790068982.0249357,-0.00963,0.01625,-0.99824,0.00351,0.00416,-0.00516
1790068982.0249357,-0.00809,0.01549,-0.99987,0.00388,0.00027,0.00271
1790068982.233914,-0.01255,0.01107,-0.99936,0.00348,0.00372,0.00794
1790068982.233914,-0.01288,0.00155,-0.99835,0.00346,0.00269,0.01889
1790068982.233914,-0.01539,0.00915,-0.99814,0.00197,0.00489,0.00038
1790068982.3968842,-0.01539,0.00915,-0.99814,0.00197,0.00489,0.00038
1790068982.4429393,-0.01173,0.00858,-0.99856,0.0049,0.00597,-0.01076
1790068982.5560782,-0.01206,0.01066,-0.9955,0.00503,0.01709,0.00916
1790068982.6365666,-0.01097,0.01173,-0.99686,0.00342,0.00478,0.00032
1790068982.845934,-0.00996,0.01472,-0.99908,0.00588,0.00769,-0.00615
1790068982.9433777,-0.01178,0.01,-0.99968,0.00274,0.00596,0.00923
1790068983.0564106,-0.01172,0.00425,-1.00152,0.00046,0.00102,0.01376
1790068983.2493074,-0.00877,0.01973,-0.99778,0.0038,0.00183,-0.03282
1790068983.265283,-0.00644,0.00753,-0.99877,0.00057,0.01216,0.01244
1790068983.3609083,-0.01325,0.00705,-0.99771,0.00457,0.00104,0.00438
1790068983.4567606,-0.01363,0.01155,-0.99695,0.00077,0.00047,0.00105
1790068983.6654124,-0.00607,0.01682,-1.00058,0.00352,0.00562,-0.01148
1790068983.6811156,-0.00842,0.01834,-0.9978,0.00326,0.00343,-0.00986
1790068983.8721187,0.12864,0.36775,-1.00957,-0.0193,0.01778,-0.9241
1790068983.8721187,0.00369,0.02279,-0.99089,-0.0218,-0.00275,-1.25639
1790068984.0648272,0.02583,0.02675,-0.97488,0.0105,0.04551,-1.44038
1790068984.277723,0.0225,0.03293,-1.01136,0.01038,0.01295,-1.52677
1790068984.277723,0.00317,0.00454,-0.99618,0.00814,0.02575,-1.53463
1790068984.4185197,0.02106,0.04474,-0.99647,0.01512,-0.00302,-1.61957
1790068984.6872694,0.02234,-0.03019,-1.00766,0.01659,0.02729,-1.54918
1790068984.8809884,-0.07574,-0.20506,-0.99313,-0.0135,0.02931,-0.82303
1790068984.8967261,-0.02571,-0.03979,-1.00217,0.00189,0.01004,-0.35016
1790068985.0893502,0.00838,0.01063,-1.00358,9e-05,0.00897,-0.00379
1790068985.1051004,-0.00792,0.00943,-0.9983,-0.0,0.0052,-0.00384
1790068985.2983441,-0.0161,0.00105,-0.99941,0.00315,0.00587,0.00475
1790068985.426082,-0.01005,0.00458,-0.99929,0.00422,0.00231,0.00258
1790068985.5055678,-0.00778,0.00385,-0.99812,0.00252,0.00367,0.00232
1790068985.7089474,-0.01437,-0.00837,-0.99909,0.00405,0.0072,0.02153
1790068985.924871,-0.01001,0.00308,-0.99958,0.0021,0.00501,0.00357
1790068986.1257129,-0.00215,-0.00257,-0.99854,0.00081,0.00656,0.00924
1790068986.225773,-0.00986,0.00407,-0.99958,0.00111,0.00917,-0.00468
1790068986.3034632,-0.01547,-0.00784,-0.99837,0.00409,0.00386,0.01601
1790068986.4147887,0.12914,-0.00099,-0.99247,-0.00867,0.03271,-0.00407
1790068986.5264227,0.24386,0.00982,-1.00541,-0.03222,-0.0174,0.01279
1790068986.6268034,0.0631,0.02287,-0.99152,0.03272,-0.02001,-0.04658
1790068986.6708663,-0.14223,-0.04208,-1.03602,-0.05406,-0.02462,0.08439
1790068986.8624322,-0.11028,0.0037,-0.99672,-0.00477,0.02018,-0.02295
1790068986.9291596,0.01436,-0.01042,-1.00413,0.00242,0.0376,0.03054
1790068986.99088,0.08121,0.00499,-1.00849,-0.02774,0.00999,-0.00482
1790068987.1833901,-0.00714,-0.01252,-1.00991,0.00357,0.00823,0.00772
1790068987.199363,-0.0524,0.01298,-1.00086,-0.01527,-0.12019,0.01142
1790068987.3122077,-0.05576,-0.00866,-0.9966,-0.00499,0.02353,0.02898
1790068987.440693,0.00864,-0.00127,-1.00487,-0.0105,0.00669,0.0075
1790068987.5247557,0.05413,0.01385,-0.99509,0.00034,-0.00331,-0.01624
1790068987.6321898,-0.0238,0.0012,-1.00295,0.01116,-0.00331,0.01386
1790068987.7613413,-0.04122,0.02633,-0.99455,0.01654,0.0439,-0.04749
1790068987.841971,-0.0159,0.04371,-0.99793,0.0075,0.01088,-0.03855
1790068987.9068608,0.00767,-0.001,-1.04355,-0.03688,0.00775,0.01423
1790068988.083321,-0.00297,-0.01564,-1.00451,-0.03091,-0.00398,0.01621
1790068988.099493,0.01956,0.02952,-0.99124,0.00107,-0.01685,-0.02529
1790068988.2119815,-0.03422,-0.01761,-1.0039,0.02541,-0.0032,0.03148
1790068988.3722463,0.00322,0.0331,-0.98332,0.0197,0.0165,-0.03041
1790068988.4523695,-0.01279,0.01649,-0.99164,0.01058,0.0028,-0.01998
1790068988.581291,-0.23153,-0.04553,-0.98264,0.01771,-0.01019,0.09372
1790068988.77272,-0.16836,0.10646,-0.99761,-0.00047,0.00523,-0.06687
1790068988.9791648,0.02823,0.02772,-0.99966,0.0035,0.0041,-0.02696
1790068988.9791648,0.01042,0.01567,-0.99878,0.0037,0.00227,-0.01187
1790068989.1917791,-0.00028,0.00454,-0.99977,0.00417,0.0018,0.00388
1790068989.1917791,0.00046,0.01103,-0.99798,-0.00024,0.00533,-0.0174
1790068989.3072968,-0.01053,-0.00697,-0.99834,-0.00066,0.01116,0.02856
1790068989.385572,-0.01155,0.00284,-0.99768,0.00126,0.00867,0.00185
1790068989.481232,-0.00277,0.01777,-0.99851,0.00197,0.00364,-0.01434
1790068989.5755446,-0.01091,0.0019,-0.99958,0.00188,0.00162,0.0073
1790068989.7987533,-0.00504,-0.00205,-0.99942,0.00144,0.00406,0.00986
1790068990.0073633,-0.00757,0.00486,-1.00004,0.00343,0.00379,0.00504
1790068990.2170355,-0.00601,0.00699,-0.9996,0.00142,0.00265,0.00116
1790068990.3751068,0.00116,0.01902,-0.99991,0.00298,0.00237,-0.00877
1790068990.4858778,-0.00337,0.01535,-0.9977,0.00028,0.00665,-0.00471
1790068990.630614,-0.0044,0.00924,-0.99874,0.00479,0.00831,0.00292
1790068990.8234243,-0.00674,0.00561,-0.99978,0.00121,0.0025,0.00253
1790068991.0356073,-0.00801,0.00435,-0.99886,0.00613,0.00395,0.00318
1790068991.0444243,-0.00612,0.00958,-0.99809,0.00184,0.00551,0.00014
1790068991.2446892,-0.00449,0.01071,-0.99861,0.00432,0.00297,-0.0053
1790068991.2446892,-0.00795,0.00894,-0.99832,0.00221,0.00596,-0.00594
1790068991.4493227,-0.00778,0.00831,-0.99932,-0.00046,0.0037,-0.00184
1790068991.6461387,-0.00946,0.00012,-1.00111,0.00131,0.00526,0.00638
1790068991.6579866,-0.01058,-0.0001,-0.99993,-0.001,0.00487,0.00973
1790068991.8517213,-0.00409,0.00684,-0.99732,-0.00202,0.00027,-0.01395
1790068991.8517213,-0.01218,-0.01683,-1.00049,0.00473,-0.00291,-0.00179
1790068992.017859,-0.0088,0.01235,-0.99895,0.00319,-0.00066,-0.00615
1790068992.017859,-0.00901,0.0136,-0.99817,0.0042,0.0031,-0.0064
1790068992.2653391,-0.00817,0.00808,-0.99832,0.00485,0.0067,0.0033
1790068992.2653391,-0.00522,-0.00068,-1.00046,0.00237,0.00497,0.00917
1790068992.4588053,-0.01092,0.00167,-0.99858,0.00391,0.00069,0.00919
1790068992.5066283,-0.0075,0.00652,-1.00067,-0.00151,0.00313,0.00198
1790068992.6661947,-0.00437,0.0306,-0.99835,-0.00093,0.00756,-0.01445
1790068992.8757896,4e-05,-0.01835,-0.99735,0.00386,0.00328,0.02233
1790068992.8757896,-0.01628,0.00084,-0.99874,0.0007,0.00991,0.01028
1790068992.945517,-0.00692,0.01437,-0.99815,0.00228,0.00434,-0.00383
1790068993.086158,-0.00298,0.01329,-0.99671,0.00109,0.0054,-0.0116
1790068993.2120516,-0.00611,0.02128,-1.00015,0.00623,0.00048,-0.01088
1790068993.2120516,-0.00973,-0.00086,-0.99849,0.0014,0.00631,0.00517
1790068993.3390594,-0.0077,0.00852,-0.99803,0.00301,0.00652,0.00318
1790068993.4567485,0.20168,0.01917,-0.99992,0.00728,0.01986,-0.04104
1790068993.5153985,0.18458,-0.01822,-0.99263,-0.00397,0.00524,-0.01388
1790068993.659553,0.01345,0.01326,-0.97173,0.03583,-0.04627,0.00608
1790068993.7717092,-0.13308,-0.01049,-0.98858,-0.01153,0.001,0.03092
1790068993.900081,-0.07421,-0.01174,-1.01185,-0.01825,0.00449,-0.00201
1790068993.9806764,0.04093,-0.00139,-0.99929,-0.01059,0.01758,0.01312
1790068994.04488,0.06111,-0.01708,-1.00786,-0.03359,-0.03533,0.04162
1790068994.220979,-0.00542,-0.0056,-0.98282,-0.00529,0.0356,0.04845
1790068994.2458994,-0.06527,0.02081,-1.01639,0.02937,-0.01251,-0.02494
1790068994.3652918,0.02629,0.01283,-0.99786,-0.00621,0.02704,-0.00799
1790068994.5258226,0.01353,-0.00599,-1.00282,-0.00426,0.01671,-0.008
1790068994.5421772,-0.01783,-0.015,-1.03454,-0.05697,-0.01419,0.03232
1790068994.6851616,-0.0234,0.01293,-0.9975,0.00851,0.02041,-0.01607
1790068994.7966099,0.0031,0.02501,-0.98978,-0.03624,0.0225,0.00508
1790068994.8813136,0.03715,0.02362,-0.99228,0.03617,-0.00164,-0.02371
1790068994.9886565,0.01702,0.02627,-1.01676,0.00709,-0.02384,-0.03571
1790068995.0569992,-0.01309,0.01266,-0.99143,-0.01734,0.00541,-0.02019
1790068995.2457361,-0.03752,-0.01808,-1.00358,0.01695,-0.01462,0.00271
1790068995.2684042,-0.00499,-0.00273,-0.97485,0.02016,0.04019,0.01566
1790068995.5172327,-0.07223,0.0082,-0.98858,0.00682,-0.03013,-0.02505
1790068995.5172327,-0.23574,-0.01513,-1.00408,-0.00278,0.00373,0.18824
1790068995.5621138,-0.0388,0.04561,-0.99965,-0.0011,0.01418,-0.17359
1790068995.7384806,0.04073,0.00374,-0.99695,0.00413,0.00828,0.01406
1790068995.9473376,-0.00282,-0.00441,-0.99951,0.00166,0.00571,0.00422
1790068996.1519997,-0.00275,0.00918,-0.99741,0.00262,0.00507,-0.00571
1790068996.1598644,-0.00213,0.00946,-0.99837,4e-05,0.00475,-0.0023
1790068996.2641366,-0.00299,0.00453,-0.99834,0.0028,0.00617,0.00323
1790068996.2802355,-0.00727,0.00712,-0.99834,0.00133,0.00337,0.00264
1790068996.4399202,-0.01173,0.00761,-0.99646,0.00381,0.0061,0.00542
1790068996.519307,-0.00411,0.00447,-0.99913,0.00315,0.00582,0.00118
1790068996.766083,0.00805,-0.01145,-0.99895,0.00485,0.00741,0.0219
1790068996.7766585,-0.00796,0.01071,-1.0008,0.00485,0.00302,-0.0003
1790068996.9696338,-0.00619,0.00764,-0.99936,0.00161,0.00324,0.00384
1790068997.1791573,-0.00142,0.00692,-0.99999,0.00342,0.00085,0.00324
1790068997.1791573,-0.00379,0.00911,-0.99945,0.00155,0.00284,0.00096
1790068997.3397872,-0.00056,0.01368,-0.99918,0.00295,0.00349,-0.0199
1790068997.3397872,-0.00545,-0.00619,-0.99832,0.00565,0.00719,0.02219
1790068997.5330658,-0.00506,0.00621,-1.00015,0.00297,0.00095,0.00249
1790068997.5330658,-0.00331,0.01278,-1.00026,0.00338,0.00637,-0.01788
1790068997.597285,0.00158,0.00746,-0.99984,0.00194,0.0025,0.00129
1790068997.7900004,-0.00283,0.00747,-0.99771,0.00155,0.00352,-0.00025
1790068997.7900004,-0.00322,0.00867,-1.00034,0.00083,0.00266,-0.00279
1790068997.9988127,0.00073,0.00972,-0.99941,0.00265,0.00331,-0.00253
1790068997.9988127,-0.00189,0.01039,-0.99855,0.00132,0.00314,-0.00271
1790068998.1926699,-0.00167,0.00842,-0.99961,0.00339,0.00341,-0.00025
1790068998.4020636,-0.00218,0.01132,-0.99964,0.0006,0.00294,-0.00675
1790068998.4182186,-0.00253,0.00838,-0.99964,0.00064,0.00547,-0.00337
1790068998.5469291,-0.00137,0.00831,-0.99892,0.00473,0.00334,-0.0013
1790068998.6272323,-0.0032,0.00858,-1.00101,0.00352,0.00069,0.00174
1790068998.7884908,-0.00566,0.01849,-0.99787,0.00307,-0.00165,-0.00031
1790068998.9503508,0.00319,0.0191,-0.99889,0.00104,0.00051,-0.00407
1790068998.966078,0.00252,0.01625,-0.99952,-0.00195,0.01005,-0.01292
1790068999.2236655,-0.00448,0.00469,-0.99905,0.00397,0.00421,0.00557
1790068999.2393856,0.00034,0.0091,-0.99857,0.00028,0.00467,-0.00058
1790068999.432189,-0.01246,-0.00338,-0.99874,0.00074,0.00266,-0.00054
1790068999.432189,-0.0066,0.0271,-0.99906,-0.00087,-0.00532,-0.02429
1790068999.5600736,-0.00656,0.00797,-0.99904,0.00136,0.00604,0.00465
1790068999.639551,-0.00158,0.00392,-0.99818,0.00058,0.00352,0.00276
1790068999.8309069,-0.00343,0.00836,-0.99927,0.00254,0.00376,0.0009
1790069000.0389209,0.15506,0.42301,-0.97516,0.01615,0.0059,-1.58474
1790069000.0548756,0.04751,0.05188,-0.98848,0.00114,0.0029,-1.34567
1790069000.2485101,0.04703,0.02573,-0.96438,-0.02711,0.05818,-1.5021
1790069000.2646067,0.03276,0.045,-0.99319,0.00382,0.03315,-1.54266
1790069000.4575145,0.02088,-0.00429,-1.01828,0.02202,0.0173,-1.53012
1790069000.4575145,0.01375,-0.0384,-1.02137,0.01549,-0.01802,-1.51546
1790069000.5772128,0.00248,-0.0225,-1.00653,8e-05,0.00236,-1.48586
1790069000.6666052,0.025,-0.01685,-0.98495,0.03749,-0.00926,-1.52131
1790069000.8611968,0.02305,0.02245,-0.99914,-0.04153,0.00614,-1.60909
1790069001.0794284,-0.07024,-0.15424,-1.01211,0.00812,0.01463,-0.55797
1790069001.0867229,-0.03823,-0.0749,-0.99845,0.00059,0.00043,-0.12431
1790069001.27991,-0.00673,0.01359,-0.99704,0.00189,0.00428,-0.00124
1790069001.4843996,-0.00468,0.01306,-0.99873,-0.00084,0.00806,0.00205
1790069001.4864028,-0.0067,0.01388,-1.00071,0.00124,0.0019,0.00232
1790069001.59817,-0.00854,0.01289,-0.9991,0.00323,0.00548,-8e-05
1790069001.694445,-0.00782,0.01371,-0.99946,0.00186,0.00531,-0.00022
1790069001.8846972,-0.00831,0.00997,-1.00109,0.00216,0.00472,0.00169
1790069002.0946286,-0.00602,0.01061,-0.99976,0.00063,0.0025,0.00194
1790069002.3044279,-0.00689,0.01249,-0.9983,0.0024,0.00418,0.00274
1790069002.3044279,-0.0031,0.0143,-1.00008,0.00149,0.00618,0.01202
1790069002.4170988,-0.00739,0.00655,-0.99712,0.0037,0.01776,0.03065
1790069002.545158,-0.00807,0.01879,-0.99817,0.00379,0.0024,0.00058
1790069002.5931947,0.12383,0.00115,-0.99578,-0.01062,0.02438,0.02504
1790069002.7384033,0.21683,0.07264,-1.00976,0.0035,-0.0321,-0.13935
1790069002.8185372,0.05775,-0.00192,-1.0088,0.0019,0.00415,-0.00887
1790069002.9158294,-0.07968,0.01608,-1.00149,-0.00372,-0.01903,0.01822
1790069003.0597703,-0.08836,0.00511,-1.00765,-0.00636,0.01458,0.01112
1790069003.1232097,0.00786,0.00246,-1.01394,0.00561,0.00878,0.02326
1790069003.2667634,0.0571,0.01541,-1.0221,-0.0159,0.02198,-2e-05
1790069003.3470328,-0.0004,-0.00122,-1.01545,0.03105,0.00474,0.01078
1790069003.460205,-0.04876,0.00258,-0.98796,0.00776,0.01763,0.0166
1790069003.5727446,-0.04469,0.0063,-0.98763,0.00638,0.01405,-0.01148
1790069003.6363065,0.02347,0.02327,-0.98757,0.00827,0.03269,0.00022
1790069003.7324219,0.03711,0.02712,-0.98554,0.0132,0.03778,-0.01646
1790069003.8458521,-0.00167,0.03055,-0.9969,0.00922,0.01345,-0.01964
1790069003.942116,-0.01709,0.01253,-1.00416,0.02399,-0.00669,-0.0241
1790069004.0386205,0.00637,0.04033,-0.96491,-0.01119,0.00039,0.00028
1790069004.1344233,0.01785,-0.0001,-0.97337,-0.01161,0.02581,0.03796
1790069004.359082,-0.00741,0.00382,-0.99956,-0.04229,0.00449,0.0008
1790069004.359082,-0.00357,0.04726,-0.99681,0.01325,0.00208,-0.03518
1790069004.487153,-0.00803,0.00888,-1.01246,-0.01723,0.00799,0.01735
1790069004.5675504,-0.01754,0.00034,-0.99962,0.02165,-0.02748,-0.00612
1790069004.7441523,-0.24361,-0.0069,-1.00371,-0.00499,0.0015,0.01099
1790069004.760305,-0.11969,0.01105,-0.99769,0.00409,0.01211,0.02948
1790069004.9572666,-0.03048,0.0008,-0.99869,-0.00021,0.00584,0.01337
1790069004.9572666,-0.01594,0.01863,-0.99705,0.00376,0.00585,-0.00514
1790069005.1592839,-0.01365,0.01382,-0.99875,0.00382,0.00488,-0.00248
1790069005.2151787,-0.01406,0.01285,-0.99966,0.00429,0.00753,0.00131
1790069005.3626266,0.00145,0.00301,-0.99742,0.00515,0.00529,0.02767
1790069005.4745493,0.0036,0.01359,-1.00033,0.00186,0.00482,-0.00883
1790069005.5869415,-0.01492,0.00105,-0.99564,0.00632,0.00463,0.02351
1790069005.7311478,-0.01449,0.01424,-0.9965,0.00615,0.00288,-0.00115
1790069005.7789912,-0.00816,0.01495,-0.99841,0.00175,0.00215,-0.00264
1790069005.9891033,-0.01409,0.01338,-0.99747,0.00392,0.00754,0.00663
1790069006.1961741,-0.01021,0.0141,-0.99714,0.00153,0.0037,0.0019
1790069006.400443,-0.01108,0.01286,-0.99672,-0.00081,0.00197,-0.0002
1790069006.400443,-0.01189,0.01506,-0.99904,0.00425,0.00323,0.00171
1790069006.5609837,-0.00469,0.028,-0.99856,0.00224,0.00494,-0.03164
1790069006.5967028,-0.01856,-0.00635,-0.99798,0.0027,0.00184,0.02199
1790069006.7981458,-0.00873,0.02059,-0.99785,0.0017,0.00394,-0.00209
1790069006.7981458,-0.01179,0.01217,-0.99847,0.00234,0.00046,0.00709
1790069007.0072727,-0.01231,0.01441,-0.99844,0.0003,0.00327,-0.0037
1790069007.2170668,-0.00805,0.01528,-0.99791,0.00189,0.00328,-0.00042
1790069007.4115574,-0.0102,0.01339,-1.00023,0.00019,0.004,-0.00137
1790069007.620772,-0.0089,0.01189,-0.99844,0.00234,0.00434,0.00254
1790069007.620772,-0.01229,0.01185,-1.00013,0.00473,0.00397,0.00335
1790069007.8281546,-0.00961,0.01278,-0.99921,-0.00094,0.00514,0.00144
1790069007.9892406,-0.01385,0.00446,-0.99898,0.00077,0.00514,-0.0083
1790069008.005104,-0.0132,0.00682,-0.99848,0.00397,0.00735,0.01697
1790069008.2295964,-0.00437,0.02668,-0.99974,-0.00136,0.01196,-0.02472
1790069008.2295964,-0.00798,0.01695,-0.99851,0.00312,0.00126,-0.00578
1790069008.4476063,-0.01273,0.01598,-1.0002,0.00155,0.00512,-0.00405
1790069008.4476063,-0.01039,0.01096,-0.99948,0.00647,0.00515,0.0055
1790069008.6462898,-0.00959,0.01306,-0.99742,0.00439,0.00673,0.00165
1790069008.6462898,-0.0168,0.01353,-0.99877,0.00023,0.00563,0.00163
1790069008.8551245,-0.00862,0.03757,-0.99946,-0.00071,-0.00286,-0.03163
1790069008.8551245,-0.01596,0.01309,-0.99799,0.00313,0.004,0.00687
1790069009.0483654,-0.01141,0.00908,-0.99896,0.00035,0.00109,0.00041
1790069009.0643098,-0.01155,0.01259,-0.99841,0.00275,0.00362,0.00335
1790069009.2577093,-0.00948,0.01262,-0.99926,0.00191,0.00295,0.00131
1790069009.2696066,-0.01219,-0.00676,-0.99485,0.00328,0.00763,0.04962
1790069009.3646345,-0.00811,0.0206,-1.00018,0.00206,0.00227,-0.01402
1790069009.435706,-0.00916,0.0176,-0.99917,0.00302,0.00106,-0.00347
1790069009.5066679,0.0196,0.01524,-0.99846,0.00267,0.00873,-0.00562
1790069009.649966,0.21701,0.03798,-1.00663,0.01369,-0.00921,-0.12504
1790069009.7457123,0.13179,0.00094,-0.99702,-0.01224,-0.00702,-0.01146
1790069009.8263826,-0.05308,-0.01615,-1.02498,-0.03596,-0.07013,0.09784
1790069010.008999,-0.10963,0.01277,-0.98907,-0.02576,0.00185,-0.0029
1790069010.0193543,-0.02629,0.05808,-0.98039,-0.0044,0.00226,-0.02634
1790069010.1316528,0.07143,0.05516,-0.98428,0.00561,0.03349,-0.0272
1790069010.2058163,0.0613,0.03898,-0.98989,0.00774,0.03195,-0.02734
1790069010.3383794,-0.03744,0.01483,-1.01085,0.00283,-0.00084,-0.00441
1790069010.4506354,-0.07008,-0.00626,-1.01066,-0.00152,-0.02211,0.00819
1790069010.5145378,-0.03687,-0.03384,-0.9871,0.04133,0.0437,0.04687
1790069010.6589506,0.02031,-0.00549,-1.00517,-0.02005,0.01743,0.00789
1790069010.7713792,0.02451,0.03076,-1.03589,-0.00586,-0.02612,-0.0252
1790069010.8355958,0.00287,0.02977,-1.00167,0.03342,-0.02726,-0.02992
1790069010.9629025,-0.03453,0.01132,-1.01342,0.02857,-0.02761,0.02782
1790069011.0434444,-0.02353,0.02835,-1.03569,0.02176,-0.05202,0.01499
1790069011.1564214,-0.01233,-0.00835,-1.02002,-0.00761,0.0025,0.05325
1790069011.220456,-0.01025,-0.01951,-0.98854,0.02224,0.01172,0.02753
1790069011.348576,0.00498,0.04377,-0.98657,0.01668,-0.0014,-0.01132
1790069011.4142601,0.00586,0.05179,-1.0109,-0.01241,-0.00438,-0.04417
1790069011.5262492,-0.01219,0.00549,-1.00523,-0.00671,-0.01226,0.02068
1790069011.6715047,-0.19283,0.01503,-1.00109,0.01519,-0.02908,-0.00129
1790069011.719417,-0.18984,-0.02171,-0.98498,0.00813,-0.01437,0.00551
1790069011.928857,-0.017,0.00767,-0.99604,0.01993,0.01028,0.00647
1790069011.928857,-0.00948,0.0088,-0.99861,0.00535,0.00699,-0.00417
1790069012.121782,-0.00169,0.01143,-0.99976,0.00195,0.00317,0.00204
1790069012.1451662,-0.00012,0.01043,-0.99888,0.00201,0.00256,0.00206
1790069012.3404353,-0.01185,0.02478,-0.99905,-7e-05,-0.00026,-0.0109
1790069012.3404353,-0.01352,0.00963,-1.00045,0.00232,0.00206,-7e-05
1790069012.436587,-0.01152,0.00833,-0.99911,0.00197,0.00551,0.0041
1790069012.5465684,-0.01175,0.01358,-0.9988,0.00286,0.00103,-0.00199
1790069012.673296,-0.0102,0.01187,-0.99819,0.00064,0.0036,0.00256
1790069012.8503044,-0.01048,0.0122,-0.99735,0.00218,0.00433,-0.00143
1790069012.866068,-0.01666,0.01518,-1.00017,0.00272,0.00503,0.00234
1790069012.9631412,-0.01174,0.01252,-1.00065,0.00077,0.00182,0.00017
1790069013.1557972,-0.00987,0.01012,-1.0004,0.00187,0.00426,0.00034
1790069013.3484614,-0.01087,0.01046,-1.00016,0.00022,0.00438,0.00183
1790069013.3642778,-0.01071,0.00843,-1.00106,0.00098,0.0021,0.00476
1790069013.558061,-0.02234,-0.01221,-1.00019,0.00398,-0.00074,0.03965
1790069013.558061,-0.00409,0.02167,-0.99841,0.00231,0.00216,-0.01255
1790069013.6906116,-0.00891,0.01692,-0.99959,0.00125,0.00401,-0.00287
1790069013.7829394,-0.01274,0.01061,-1.00031,0.00158,0.00294,0.00328
1790069013.977051,-0.01012,0.01438,-0.99833,0.00423,0.00247,0.00096
1790069014.169835,-0.00979,0.01276,-1.0002,0.00411,0.00597,0.00341
1790069014.3787858,-0.01073,0.0115,-0.99914,0.00368,0.00413,0.00102
1790069014.5884783,-0.01177,0.01403,-0.99939,-4e-05,0.00307,0.00054
1790069014.5884783,-0.01056,0.01088,-0.99976,0.00301,0.0015,-0.00013
1790069014.7015147,-0.01015,0.01221,-1.00037,0.00406,0.00278,0.00221
1790069014.7970831,-0.01097,0.0127,-0.99751,0.0003,0.00561,-0.00031
1790069015.0069973,-0.01119,0.01064,-0.99908,0.00226,0.00309,0.00179
1790069015.1844344,-0.0119,0.01196,-0.99945,0.0038,0.00362,0.01279
1790069015.2006466,-0.00375,0.00603,-0.99878,-0.00157,0.01279,-0.00123
1790069015.4093513,-0.01296,0.01018,-0.99772,0.00166,0.00386,-0.00129
1790069015.61635,-0.00948,0.00771,-0.99802,0.00214,0.00776,0.00195
1790069015.7120936,-0.01309,0.01387,-0.99864,0.00401,0.00372,0.00251
1790069015.8247907,-0.0159,0.01912,-0.99853,0.00177,0.00468,-0.00314
1790069016.0157573,-0.00785,0.02872,-0.99938,0.00355,0.00767,-0.0375
1790069016.0157573,-0.01441,0.01288,-0.99895,0.00244,0.00122,0.00872
1790069016.1321633,-0.01364,0.00605,-0.99872,-0.00114,0.00567,0.00041
1790069016.43414,-0.00987,0.01164,-0.99954,0.00197,0.00521,0.00335
1790069016.43414,-0.01316,-0.06471,-0.99815,0.00987,-0.02017,1.41434
1790069016.6350574,-0.00241,0.00245,-0.98731,0.03363,0.00773,1.52491
1790069016.7351935,0.02642,0.01984,-1.00727,-0.03251,-0.03233,1.57321
1790069016.8401077,0.04569,0.04985,-1.03874,0.02265,-0.031,1.5014
1790069017.0460136,0.02203,0.03892,-1.03679,-0.00229,-0.0096,1.48885
1790069017.2550771,0.02966,-0.00483,-0.98708,0.00743,0.03038,1.6025
1790069017.448474,0.02321,0.00572,-1.026,-0.00083,0.02598,1.54009
1790069017.448474,0.01831,0.02611,-1.00621,-0.02812,0.00804,1.55744
1790069017.6577241,0.02961,-0.00879,-0.99144,0.013,0.02241,1.56101
1790069017.865899,0.01054,-0.02737,-0.97392,0.01228,0.01278,1.64604
1790069018.0712843,0.03283,0.03591,-1.05771,0.01319,-0.00133,1.49435
1790069018.0712843,0.02392,0.00887,-1.00389,-0.00372,-0.01439,1.56313
1790069018.262225,0.01189,-0.06212,-0.97388,-0.00052,-0.00066,1.65647
1790069018.2782028,0.00924,-0.02312,-0.98496,0.01114,0.0061,1.62333
1790069018.4719026,0.02903,0.06753,-0.99403,0.00785,-0.0016,0.59393
1790069018.4719026,0.01231,0.06519,-1.00676,-0.0154,-0.00522,0.09179
1790069018.599323,-0.00333,-0.00507,-1.00083,-0.0001,0.00301,-0.00108
1790069018.6754496,-0.00382,0.00031,-0.99974,0.00473,0.0033,0.00687
1790069018.7424433,-0.00485,0.01625,-0.99719,-0.00072,0.00893,-0.02298
1790069018.889225,0.00741,0.01783,-0.99932,0.00135,0.00488,-0.00874
1790069019.090687,0.00123,0.00399,-0.99708,0.00117,0.00207,-0.00125
1790069019.090687,-0.00524,0.00365,-0.99694,0.00075,0.00578,-0.00209
1790069019.2994924,-0.00783,0.00475,-1.00008,0.00362,0.00324,-0.00031
1790069019.2994924,-0.00408,0.00648,-0.99906,0.00289,0.00423,0.00059
1790069019.493981,-0.00236,0.00353,-0.99866,0.0038,0.00493,0.00045
1790069019.493981,-0.00435,0.00467,-0.99802,0.00538,0.00067,0.00061
1790069019.7016163,-0.00405,0.00484,-0.99929,0.00237,0.00683,-0.00038
1790069019.717305,0.01388,0.00793,-0.99813,-0.00238,0.01114,-0.00965
1790069019.8770967,-0.00233,-0.00294,-0.99711,0.00677,0.00719,0.0098
1790069019.9493043,-0.00741,0.00052,-0.99942,0.00452,0.00523,0.00565
1790069020.0717804,0.15766,0.0148,-0.99373,0.00589,0.03109,-0.01073
1790069020.1337445,0.18399,0.01533,-1.00728,0.00904,-0.02006,-0.15838
1790069020.2787173,0.03975,-0.0407,-0.98928,0.02898,-0.0101,0.1252
1790069020.3913457,-0.09789,-0.00429,-0.99381,-0.0076,-0.00485,0.05148
1790069020.5357878,0.01456,-0.00055,-0.99039,0.00381,0.00943,0.02029
1790069020.5443053,0.061,-0.01008,-1.00196,-0.00604,-0.01095,0.0258
1790069020.6628177,-0.00059,-0.02035,-1.01601,-0.00632,-0.02777,0.02346
1790069020.7741177,-0.054,-0.02048,-0.99415,-0.01099,0.02212,0.03509
1790069020.9030852,-0.03945,0.00892,-1.00179,0.01875,-0.00039,0.0117
1790069020.982826,0.00663,0.0282,-0.99304,0.03019,0.03677,-0.01515
1790069021.094634,0.00851,0.00527,-0.9899,-0.00257,0.02099,-0.00915
1790069021.1585412,-0.00489,-0.00019,-1.0033,0.00276,0.01217,0.02372
1790069021.2876096,-0.02313,-0.01332,-1.00855,-0.03135,0.01562,0.01483
1790069021.3553598,-0.01905,-0.02349,-1.00632,-0.01369,0.01557,0.01787
1790069021.4971166,0.01552,0.03318,-0.98716,-0.00078,0.00088,-0.00776
1790069021.5615067,0.02356,0.03167,-0.97665,0.02241,0.00304,-0.03299
1790069021.6759388,0.01179,0.02137,-0.99719,0.02437,-0.0133,-0.03209
1790069021.770348,-0.01788,0.00484,-0.99522,0.00932,-0.04165,-0.04533
1790069021.8824666,-0.02149,-0.02409,-0.99465,-0.00477,-0.01143,0.01624
1790069021.9628806,-0.00835,-0.00794,-0.98496,-0.00706,-0.01353,0.00698
1790069022.1589103,-0.23283,-0.02029,-0.99756,8e-05,-0.03285,0.0622
1790069022.1708817,-0.1666,0.01334,-0.99178,0.00819,-0.01371,-0.01524
1790069022.3656418,0.01737,0.00798,-0.99818,0.00241,0.00215,-0.00398
1790069022.3793106,0.01224,0.00544,-0.99839,0.00189,0.00865,-0.01202
1790069022.5713,-0.00309,0.00903,-0.9983,0.00144,0.00649,-0.00716
1790069022.7895663,-0.00729,-0.01192,-0.9973,0.00333,0.0096,0.02668
1790069022.9021494,-0.00537,-0.00237,-0.99778,0.00028,0.00834,0.00244
1790069023.1908185,-0.00732,-0.00358,-0.9978,0.00797,0.00469,0.02344
1790069023.1908185,-0.00586,0.00215,-0.99884,0.00261,0.00303,0.00175
1790069023.3640459,-0.00472,-0.00036,-0.99804,0.00458,0.00152,0.01481
1790069023.386392,-0.00526,-0.00056,-1.0011,-0.00159,0.00505,0.00827
1790069023.5925484,0.00251,0.00532,-0.99832,0.00532,0.00285,0.00011
1790069023.5925484,-0.0094,0.00084,-0.99884,0.00303,0.00494,0.00542
1790069023.7857125,-0.00556,-2e-05,-0.99977,0.00263,0.00371,0.00892
1790069024.0118454,-0.00629,-0.00286,-0.99865,0.00225,0.00293,0.01209
1790069024.1727557,0.0004,0.00491,-0.99728,0.00176,0.0063,0.01526
1790069024.1727557,-0.003,0.01386,-0.99894,0.0048,0.00478,0.01096
1790069024.4138868,-0.00512,0.00518,-0.9991,0.00056,0.00525,0.00857
1790069024.6237998,-0.00774,-0.003,-0.99818,0.00417,0.00359,0.00955
1790069024.8015947,-0.01084,-0.00474,-0.99872,-0.0002,0.0045,0.01139
1790069025.0270853,-0.00818,-0.00363,-0.9979,0.00198,0.00332,0.00691
1790069025.2347538,-0.00674,-0.00398,-0.99745,0.00105,0.00454,0.00682
1790069025.4462724,-0.00657,0.00039,-0.99955,-0.00017,0.00401,-0.00032
1790069025.612654,-0.00411,0.00247,-0.99829,0.00291,0.00022,-0.00303
1790069025.6224785,-0.01459,-0.02173,-0.99979,-0.00323,-0.00737,0.00397
1790069025.810735,-0.00744,0.00053,-0.99835,0.00133,-0.00214,-0.00233
1790069025.810735,0.00278,0.01155,-0.99823,0.00168,0.01147,-0.00783
1790069026.0506465,-0.00324,0.01732,-0.99914,0.0035,0.0026,-0.01638
1790069026.2601247,-0.00709,0.01865,-0.99877,0.00373,0.00271,-0.00736
1790069026.3755202,0.00529,0.0054,-0.99932,0.00599,0.01054,-0.00396
1790069026.6619678,-0.00958,0.00305,-0.99898,0.00475,0.00939,0.00544
1790069026.6619678,-0.00835,-0.00051,-0.99758,0.00066,0.00453,0.00299
1790069026.8222706,-0.08297,-0.17201,-0.98942,0.00699,-0.02103,0.50637
1790069026.8383093,-0.03243,-0.0749,-0.99351,0.00157,0.01212,1.3366
1790069027.07812,0.03281,-0.04832,-0.99223,0.00088,0.00593,1.47371
1790069027.07812,0.02454,-0.02948,-1.00065,-0.00249,0.00196,1.48899
1790069027.2878463,0.00974,-0.02428,-1.01823,-0.00913,-0.04083,1.54882
1790069027.2878463,0.01489,0.03154,-1.0132,0.01431,-0.04965,1.52277
1790069027.4821982,0.01845,-0.02679,-0.96278,0.01451,-0.02971,1.54038
1790069027.6916146,-0.00797,-0.03468,-1.00917,-0.00537,-0.02436,1.63742
1790069027.8368232,0.03338,0.12615,-1.00326,-0.02608,-0.01476,1.22455
1790069027.8526878,0.00511,0.01297,-0.99861,0.02013,0.01106,0.51353
1790069028.0931864,0.00634,0.06858,-0.99678,-0.00219,-0.00196,0.03007
1790069028.3027742,-0.01585,0.00619,-0.99893,0.00163,0.00312,0.00236
1790069028.4637208,-0.01458,0.00492,-1.00022,0.00306,0.00614,-0.00093
1790069028.4871178,-0.01378,0.0047,-0.99909,0.00167,0.00276,0.00065
1790069028.7143524,-0.01268,0.00166,-0.9994,0.00172,0.00422,-0.00782
1790069028.7143524,-0.01184,0.0032,-1.00028,0.00409,0.00382,-0.00902
1790069028.841877,-0.01338,0.00946,-0.99947,0.00296,0.00418,0.0007
1790069028.922062,-0.01326,0.0054,-0.99929,0.0024,0.00127,0.00322
1790069029.1296976,-0.01157,0.00513,-0.99785,0.00185,0.0045,0.00293
1790069029.1296976,-0.01639,0.00178,-1.00015,0.004,0.00587,-0.01734
1790069029.2568898,0.00144,0.00934,-0.99956,0.00432,0.00764,-0.00844
1790069029.3199768,-0.01293,0.00869,-0.99866,0.00435,0.00628,-0.0028
1790069029.3857343,0.07781,0.0093,-0.99398,0.0083,0.02395,0.00891
1790069029.5418482,0.22766,0.03107,-0.98403,0.0112,0.00676,0.00614
1790069029.6381423,0.10689,-0.01967,-0.99603,0.02654,-0.04336,0.00192
1790069029.7021909,-0.08012,0.01029,-0.9694,-0.00275,-0.01383,-0.01401
1790069029.8145351,-0.12545,-0.0124,-0.99858,-0.01589,0.00473,0.01958
1790069029.959222,0.00499,0.00479,-0.99267,0.00703,0.0111,0.00369
1790069030.0232365,0.06115,-0.02328,-1.00517,-0.00726,-0.00186,0.0314
1790069030.1357524,0.02461,0.01166,-1.01654,-0.01108,0.00807,-0.00188
1790069030.2155685,-0.0538,-0.0036,-1.00773,0.02458,-0.01093,-0.00984
1790069030.3456564,-0.05594,0.02529,-0.996,0.02176,0.01882,-0.01569
1790069030.456476,0.00115,0.05511,-0.98699,0.01795,0.01991,-0.02265
1790069030.5364215,0.02827,-0.00052,-0.98063,0.01369,0.03976,0.02762
1790069030.6005578,-0.01492,-0.02292,-1.00446,-0.00811,0.02991,0.06628
1790069030.712734,-0.03988,-0.00065,-0.9993,-0.12873,-0.00573,0.03822
1790069030.8565655,-0.02377,-0.01479,-1.00071,0.02453,0.02268,0.00642
1790069030.9209902,0.01056,0.03302,-0.97934,-0.01466,0.00773,-0.03339
1790069031.032126,0.0229,0.03991,-0.98975,0.00688,0.01062,-0.07699
1790069031.159912,-0.00718,0.0093,-0.99093,-0.01444,0.03784,-0.00731
1790069031.2401676,-0.01854,0.00216,-0.98997,-0.01312,0.00505,0.00179
1790069031.370193,-0.01142,-0.00959,-0.98661,-0.00059,0.01024,-0.00411
1790069031.5780096,0.00022,0.00064,-0.99751,0.02576,-0.01455,-0.00216
1790069031.5780096,-0.22654,-0.04537,-1.01135,-0.01825,-0.00547,0.08798
1790069031.7850149,-0.1512,0.10681,-0.99299,-0.00978,-0.00104,-0.0051
1790069031.7956927,-0.01981,0.03016,-0.99934,0.01162,0.0084,-0.03497
1790069031.8670504,0.01127,0.01316,-0.99934,0.00406,0.00171,-0.00237
1790069031.996486,0.00325,0.017,-0.99885,0.00241,0.00253,-0.00872
1790069032.1987317,-0.00156,0.01181,-1.00035,0.00159,0.00054,-0.00093
1790069032.1987317,-0.01786,0.0017,-1.00037,0.0082,0.00292,0.02274
1790069032.3227546,-0.012,-0.00082,-1.00067,0.00143,0.00277,-0.002
1790069032.4033515,-0.00599,0.01226,-0.99938,0.00115,0.0035,-0.00939
1790069032.613051,-0.00584,0.01159,-0.99899,0.00374,0.0031,-0.00974
1790069032.7749627,-0.00267,0.02119,-0.9974,-0.00084,0.00399,-0.02333
1790069032.7826414,-0.00409,0.01771,-0.99756,-3e-05,0.0047,-0.01784
1790069032.8680804,0.0061,0.0089,-0.99933,0.00609,0.01034,0.00203
1790069032.9325743,-0.01013,0.02403,-0.99796,-0.00118,0.00433,-0.01773
1790069033.2217581,-0.00122,0.01617,-0.99715,0.00354,0.0112,-0.00794
1790069033.2217581,-0.00422,0.01205,-1.00059,0.0037,0.00415,-0.0014
1790069033.4263902,-0.00995,0.0007,-0.9986,0.001,0.00291,0.01631
1790069033.4421887,-0.00675,0.00433,-0.99918,0.00397,0.00053,0.00272
1790069033.5836642,-0.0054,0.01457,-0.99946,-0.00073,0.00809,-0.01038
1790069033.6314852,-0.00481,0.01199,-0.99807,0.00418,0.00154,-0.01258
1790069033.8560297,-0.00137,0.02168,-0.99817,0.00318,0.00609,-0.01531
1790069033.8560297,-0.00538,0.01073,-0.99589,0.00176,0.00056,0.00349
1790069034.0328064,-0.00958,0.00499,-0.99811,0.0013,0.00066,0.01215
1790069034.2418618,-0.00899,-0.00051,-0.99903,0.00358,0.00242,0.0223
1790069034.2418618,-0.01116,-0.00629,-0.99861,0.00281,0.00119,0.02459
1790069034.257865,-0.01254,-0.00657,-0.9981,0.0028,0.00175,0.01694
1790069034.4495676,-0.01062,-0.00489,-1.00093,0.00284,0.00352,0.00972
1790069034.4495676,-0.00879,0.00677,-0.99961,0.00466,0.00498,-0.00818
1790069034.6564684,-0.00838,0.01281,-0.99856,0.00126,0.00654,-0.01914
1790069034.6564684,-0.00375,0.01855,-0.99937,0.00175,0.00313,-0.02358
1790069034.8658793,-0.00355,0.02382,-0.99935,0.0002,0.0038,-0.02121
1790069034.8818269,0.00391,0.0308,-0.99924,0.0054,0.00522,-0.04366
1790069035.058532,0.00497,0.02405,-1.00039,-0.00125,0.00627,-0.03974
1790069035.0746634,-0.00134,0.02198,-1.00119,0.00239,0.00188,-0.02326
1790069035.2203307,-0.00561,0.01464,-0.99854,0.00217,0.00417,-0.00381
1790069035.477676,-0.0088,0.00548,-1.00033,0.00396,0.00306,0.0088
1790069035.477676,-0.00981,-0.00166,-0.99847,0.00794,0.00133,0.03586
1790069035.477676,-0.01069,-0.00096,-0.99985,0.00176,0.0044,0.01895
1790069035.6719153,-0.01217,-0.00843,-0.99894,0.00236,0.0061,0.02427
1790069035.882712,-0.01796,0.00228,-1.00004,0.00331,-0.00364,-0.00027
1790069035.8966672,0.00468,-0.01271,-0.9969,0.00521,-0.00418,0.0282
1790069035.9932091,-0.01655,-0.00899,-1.00026,0.00234,-0.0026,0.03106
1790069036.1048381,-0.01099,-0.0031,-1.00156,0.00521,0.00952,0.02095
1790069036.2980804,-0.01151,-0.00533,-0.99879,0.00419,0.00397,0.01537
1790069036.3033292,-0.01201,-0.0014,-1.00043,0.00242,0.00523,0.00445
1790069036.5034413,-0.01058,0.00733,-0.99746,0.00103,0.00529,-0.01237
1790069036.5034413,0.05308,0.135,-0.9934,0.03114,-0.00774,1.22776
1790069036.7016435,0.02996,-0.02099,-1.00814,0.00489,-0.00247,1.41336
1790069036.9227087,0.02662,0.02342,-1.01604,0.02181,-0.03465,1.46864
1790069037.1189048,0.02229,0.00477,-0.9692,0.02188,0.02704,1.522
1790069037.3182662,0.02664,-0.00319,-1.03196,0.01946,-0.00687,1.56662
1790069037.3182662,0.00167,0.00306,-1.0287,0.03171,-0.03308,1.59352
1790069037.519683,0.01577,0.0153,-0.983,0.00846,-0.00704,1.53133
1790069037.727612,0.01837,-0.01984,-1.0002,0.02004,-0.03287,1.60531
1790069037.9032147,-0.01,-0.03366,-1.02526,0.01917,-0.02615,1.59238
1790069037.9032147,0.02346,0.04031,-1.01456,0.03842,-0.0162,1.54636
1790069038.1444106,0.02222,-0.023,-0.97414,0.05343,0.02227,1.55701
1790069038.3377562,0.00849,-0.01962,-1.01446,0.00303,0.00423,1.6154
1790069038.5469534,0.03964,0.04322,-1.00889,0.02599,-0.05172,1.51923
1790069038.5469534,0.00486,0.03566,-1.00597,0.0007,-0.0028,0.56241
1790069038.7570035,-0.01308,0.00403,-1.00195,0.00276,0.00654,0.00492
1790069038.870989,-0.01453,0.01127,-0.99598,0.00324,0.00372,-0.00039
1790069038.9247196,-0.00805,0.00875,-0.99768,0.00136,0.0022,-0.00134
1790069039.167878,-0.00356,0.00292,-0.99775,0.00199,0.00302,0.0013
1790069039.360179,-0.0082,0.01567,-0.99976,0.00334,0.00536,-0.00102
1790069039.5689516,-0.00999,0.00959,-1.00037,0.00275,0.00506,0.00271
1790069039.5689516,-0.00915,0.00783,-1.00018,0.00483,0.00524,1e-05
1790069039.7778597,-0.00915,0.00783,-1.00018,0.00483,0.00524,1e-05
1790069039.9342,-0.01123,0.01812,-0.99896,0.00546,0.00782,-0.00657
1790069039.9441907,-0.0136,-0.02672,-1.00001,0.00689,0.00872,0.04209
1790069040.0339618,-0.00021,0.02507,-0.99949,0.00135,0.00279,-0.0194
1790069040.183581,0.10162,0.01017,-0.99709,0.00863,0.02643,0.00213
1790069040.240861,0.20254,0.02023,-0.99153,0.04654,0.01946,-0.14773
1790069040.3523872,0.08066,-0.0239,-0.99081,0.00295,-0.00664,0.05784
1790069040.5522578,-0.06412,0.01976,-1.02685,-0.00887,-0.0761,0.04441
1790069040.560318,-0.12176,0.01799,-1.01515,0.00459,0.00844,0.00228
1790069040.686601,-0.02753,0.00415,-0.99689,-0.01388,-0.01845,0.00381
1790069040.7977967,0.04867,0.00958,-1.0077,0.00514,-0.01014,0.00573
1790069040.8776078,0.04106,0.03038,-0.97341,-0.00648,-0.00565,0.00014
1790069041.0070953,-0.0449,-0.00531,-0.99437,-0.03041,0.0472,0.01708
1790069041.1187334,-0.0394,0.02291,-1.00077,0.01451,0.02081,-0.01843
1790069041.1985664,-0.00013,0.006,-1.01022,0.00134,0.0243,0.01897
1790069041.3114429,0.01661,-0.00176,-1.03103,-0.02663,-0.01021,0.01984
1790069041.3751855,0.01322,0.03194,-0.99744,0.00916,0.00901,-0.06161
1790069041.5187926,-0.02177,0.0059,-0.99268,0.0126,0.0304,-3e-05
1790069041.5849073,8e-05,0.02124,-0.99358,-0.00919,0.02373,-0.01258
1790069041.6938548,0.00569,0.0194,-0.98284,0.0126,-0.02575,-0.01384
1790069041.8218172,0.01598,0.00266,-1.01369,-0.01051,0.01624,-0.00521
1790069041.9059474,-5e-05,-0.0003,-1.01918,0.04688,-0.02911,0.01884
1790069042.0150235,-0.01108,0.0252,-0.99733,0.01503,-0.02129,-0.04416
1790069042.0950253,-0.03518,0.0076,-1.00386,0.01204,-0.00941,0.01913
1790069042.237843,0.00776,0.02007,-0.98796,0.00314,0.01801,0.00118
1790069042.385069,-0.24177,-0.00777,-0.98552,0.00108,0.00566,0.08015
1790069042.400957,-0.08621,0.077,-0.98738,-0.0242,0.03295,-0.01066
1790069042.6428733,0.02069,0.00059,-0.99963,-0.00192,0.0008,-0.00902
1790069042.659285,0.00705,0.01967,-0.99844,0.00076,0.0042,-0.01082
1790069042.8129413,-0.00094,0.01972,-0.99853,0.00404,0.00592,-0.01138
1790069042.8235111,-0.00659,0.01602,-0.99737,0.00376,0.00536,-0.01127
1790069042.9440274,-0.00537,0.01293,-0.99764,0.00279,0.00446,-0.00624
1790069043.05652,-0.00428,0.02258,-1.00109,0.00026,-0.00448,-0.0471
1790069043.2501583,-0.00245,0.01621,-0.99793,0.00212,0.00378,-0.01139
1790069043.2662382,-0.00938,-0.01909,-0.99921,0.00433,0.00383,0.03267
1790069043.4111066,-0.0053,-0.00072,-0.99965,-0.00011,0.00579,0.01156
1790069043.4269648,-0.00642,0.0031,-0.99793,0.00455,0.00531,0.01562
1790069043.6668444,-0.00901,0.01271,-0.99901,0.00151,0.00076,-0.0054
1790069043.8759823,0.00417,0.01962,-0.9981,0.00087,0.00777,-0.01103
1790069043.9722438,0.00086,0.0179,-0.99747,0.00078,0.00303,-0.01178
1790069044.0680969,9e-05,0.01828,-0.9993,0.00351,0.00437,-0.01311
1790069044.276138,-0.00194,0.01429,-0.99827,0.00176,0.00335,-0.01021
1790069044.2922704,-0.00138,0.0305,-0.99761,0.00478,0.00465,-0.01447
1790069044.4474113,0.00297,0.02287,-0.99784,0.00315,0.00425,-0.02903
1790069044.6933494,-0.00331,0.0135,-0.9997,0.00331,0.00374,-0.00481
1790069044.6933494,-0.00489,0.00898,-0.99832,0.00431,0.00238,-0.0136
1790069044.8999424,-6e-05,0.01056,-0.9974,0.0031,0.0014,-0.00564
1790069044.8999424,-0.00401,0.00925,-0.99928,0.00303,0.00433,-0.00541
1790069044.9636493,-0.00609,0.01195,-0.99896,0.00295,0.00338,-0.00649
1790069045.0950184,0.00068,0.01492,-1.00074,0.00119,0.00336,-0.00941
1790069045.3012626,-0.00223,0.01555,-0.99774,0.0013,0.00469,-0.01358
1790069045.3012626,-0.0022,0.01616,-0.99761,0.00084,0.00378,-0.01324
1790069045.3169644,-0.00382,0.01509,-0.99869,0.0009,0.00268,-0.01116
1790069045.5099545,0.00017,0.01318,-0.99886,0.00043,0.00645,-0.01122
1790069045.5257115,-0.00296,0.01152,-0.99976,0.00091,0.00496,-0.00885
1790069045.715893,-0.00356,0.0151,-0.99908,0.00208,0.00627,-0.00813
1790069045.8772516,-0.00226,0.01286,-1.00046,-2e-05,0.00533,-0.00534
1790069045.8772516,-0.00469,0.01734,-0.99949,0.00344,0.00413,-0.00553
1790069045.9731185,-0.00246,0.00479,-0.9998,0.00212,-0.00193,-0.00593
1790069046.1325204,-0.00246,0.00479,-0.9998,0.00212,-0.00193,-0.00593
1790069046.1325204,-0.00599,0.00722,-0.99952,0.00338,0.00559,0.00952
1790069046.3260105,-0.00599,0.00722,-0.99952,0.00338,0.00559,0.00952
1790069046.341659,-0.00565,0.00095,-0.99916,0.00162,0.00658,0.01613
1790069046.5322723,-0.012,0.00253,-0.99805,-0.00111,0.00285,0.00745
1790069046.6555777,-0.00073,0.02468,-0.99751,0.00101,-0.00223,-0.00265
1790069046.7391224,-0.00073,0.02468,-0.99751,0.00101,-0.00223,-0.00265
1790069046.9456382,0.00078,0.01669,-0.99746,0.00137,0.0057,-0.01045
1790069046.9456382,0.00266,0.01779,-0.99793,0.00446,0.00519,-0.00871
1790069047.0583768,-0.17513,-0.37789,-0.99324,0.04378,0.01756,1.5033
1790069047.157646,-0.01721,-0.07232,-1.01592,0.0364,-0.00431,1.36469
1790069047.358748,0.06071,0.00989,-0.98748,0.00351,-0.01419,1.42205
1790069047.364462,0.02459,0.00658,-1.01479,-0.02799,-0.06306,1.48881
1790069047.55903,0.01924,0.01551,-1.02617,-0.01729,-0.01746,1.55943
1790069047.76026,0.02994,0.02585,-1.01438,0.0064,-0.02687,1.53093
1790069047.765185,0.03236,-0.01905,-0.9946,0.00484,0.01546,1.54298
1790069047.973568,0.04371,0.02755,-0.9875,0.09432,0.03293,1.54461
1790069047.973568,0.0004,-0.03644,-0.98834,-0.04669,-0.03506,1.62883
1790069048.166393,0.06231,0.17787,-1.01931,-0.01083,-0.00101,0.69073
1790069048.166393,0.03942,0.08153,-0.99869,0.00495,0.00421,0.11447
1790069048.3756344,0.00213,-0.00111,-0.99939,0.00943,0.00876,-0.03615
1790069048.3756344,-0.00927,-0.00196,-0.9979,0.00393,0.00335,0.00164
1790069048.48722,-0.0136,0.00218,-0.9993,0.0011,0.00428,0.00186
1790069048.592173,-0.00046,0.014,-0.99847,0.00191,0.00321,-0.0299
1790069048.788939,-0.01031,0.00012,-0.99918,0.00346,0.00374,0.00769
1790069048.9951792,-0.00477,0.00419,-0.99867,0.0056,0.00277,-0.00238
1790069049.108012,-0.00899,0.00505,-0.9999,-0.00233,0.0056,-0.00608
1790069049.1799924,0.0078,0.02099,-0.99825,-0.00076,0.00665,-0.0155
1790069049.3679771,0.15761,0.01322,-0.9917,-0.00183,0.04581,-0.02961
1790069049.37893,0.21346,0.00782,-0.99389,0.00232,0.01539,-0.03695
1790069049.4914715,0.05741,-0.04343,-0.98376,-0.04086,-0.00854,0.06752
1790069049.6038902,-0.10136,-0.00931,-0.97315,-0.01622,0.0106,0.02255
1790069049.6999512,-0.1115,-0.01264,-0.99487,0.00385,0.003,0.03645
1790069049.8134975,0.03093,0.02041,-0.98919,0.00391,0.03021,-0.00516
1790069049.8929873,0.0818,0.00281,-0.99422,0.01036,0.0045,0.02637
1790069050.0050023,-0.00805,-0.00076,-1.02604,-0.00814,-0.00545,-0.00349
1790069050.0847194,-0.05194,0.03004,-0.98409,0.01934,-0.00775,-0.05309
1790069050.2609928,-0.06703,0.00535,-0.99334,0.00664,0.0056,-0.00107
1790069050.3251917,0.00683,0.02578,-0.99592,0.03643,0.02017,-0.01529
1790069050.405156,0.03277,0.00052,-0.98446,-0.00856,0.03867,-0.01803
1790069050.5820727,-0.00772,-0.03988,-1.00398,0.00156,0.01923,0.07212
1790069050.5978956,-0.04209,0.01344,-1.00695,0.00019,0.01624,-0.01343
1790069050.7103462,-0.0255,-0.00429,-1.0023,-0.0196,-0.00054,0.00982
1790069050.838262,-0.0125,-0.03634,-1.01344,-0.04244,-0.02196,0.0646
1790069050.918161,0.01786,0.01622,-0.97864,0.0029,-0.0113,-0.02161
1790069051.0212307,0.01734,0.02947,-0.98884,0.00687,0.02563,-0.03429
1790069051.0926623,-0.02733,-0.01269,-1.00058,-0.01774,0.00928,0.02249
1790069051.3482885,-0.01511,-0.0028,-1.00517,0.01859,-0.03988,-0.01274
1790069051.4604366,-0.24885,-0.03225,-1.00321,-0.01413,0.00042,0.14491
1790069051.653766,-0.05236,0.04025,-1.00366,0.01829,-0.01262,-0.10417
1790069051.653766,0.01033,-0.01887,-0.99887,0.00596,0.006,-0.00086
1790069051.8629906,0.00593,0.00665,-1.00194,0.00155,0.00406,-0.02027
1790069051.8629906,-0.00018,0.0006,-0.99883,0.00492,0.00513,0.002
1790069052.0194962,-0.00835,0.00217,-0.99858,0.00737,0.00315,0.00259
1790069052.035264,-0.01118,0.02174,-0.99911,0.00055,0.00775,-0.04637
1790069052.131792,-0.00731,-0.00194,-0.99885,0.00231,0.00594,0.00996
1790069052.272313,-0.00844,0.00634,-0.99987,0.00198,0.00273,-0.0035
1790069052.433627,-0.01195,0.00273,-1.00002,-1e-05,0.00114,-0.00667
1790069052.433627,-0.01187,0.00126,-0.99748,0.00236,0.0024,0.00343
1790069052.6806521,-0.01302,-0.00863,-0.99961,0.00495,0.00577,-0.00222
1790069052.8829627,-0.01364,0.0,-1.00145,0.0009,0.00465,-0.00634
1790069053.0256872,-0.00624,0.00524,-1.00028,0.00186,0.00358,-0.00128
1790069053.041505,-0.00909,0.00246,-0.99804,0.00538,0.00359,-0.00042
1790069053.2667742,-0.0077,0.00111,-0.99717,0.00143,0.00499,0.00462
1790069053.282342,-0.00791,0.00644,-0.99988,0.00264,0.00531,-0.0335
1790069053.4926782,-0.00398,0.00653,-0.9988,0.00309,0.00256,-0.00644
1790069053.699434,-0.00603,0.00298,-0.99831,0.00068,0.00459,0.00068
1790069053.699434,-0.01133,0.00416,-0.99963,0.00133,0.00436,-0.00184
1790069053.9085183,-0.00769,0.00274,-0.99808,0.00115,0.00298,-0.00317
1790069053.9085183,-0.0088,0.0042,-0.99736,0.00364,0.00522,0.00168
1790069054.0370204,-0.01094,0.00283,-1.0009,0.00346,0.00519,0.00124
1790069054.1162372,-0.00793,0.00253,-0.9994,0.00267,0.00337,0.00071
1790069054.3135064,-0.00778,0.00172,-0.99902,-0.00037,0.00309,0.00106
1790069054.5178792,-0.00541,0.00318,-0.99816,0.00333,0.00812,0.0017
1790069054.5178792,-0.0079,0.00352,-0.99915,0.0002,0.00411,4e-05
1790069054.6869204,-0.00952,0.00925,-0.99895,-0.0051,0.00351,-0.00975
1790069054.6953683,-0.01786,-0.0155,-1.00085,0.00018,-0.00587,0.00778
1790069054.9329436,-0.00549,0.01071,-0.99957,0.00428,-0.00016,-0.01527
1790069054.9329436,-0.00862,0.01089,-0.99965,0.00231,0.00305,-0.00919
1790069055.0451307,-0.01126,0.00165,-0.99787,0.00421,0.00217,0.00532
1790069055.0609117,-0.00833,-0.00153,-0.99792,0.00237,0.00334,0.00355
1790069055.3341694,-0.00963,0.00522,-0.99766,0.00338,0.00402,0.0001
1790069055.4469028,-0.00874,0.02164,-1.00045,-0.00116,0.0013,-0.05129
1790069055.5454257,-0.01271,0.00201,-0.99997,0.00318,0.00172,0.01062
1790069055.7506833,-0.01128,-0.0035,-0.99927,0.00063,0.00388,0.00169
1790069055.7666814,-0.00566,0.00463,-0.9981,0.0025,0.00247,0.00143
1790069055.9592257,-0.0077,0.00364,-1.00029,-0.00107,0.00311,-0.0032
1790069055.9592257,-0.16844,-0.40855,-1.00605,0.00531,-0.03375,1.25289
1790069056.0559297,-0.01347,-0.04663,-1.00647,-0.01229,0.0032,1.29109
1790069056.151848,0.04362,0.01819,-0.99387,-0.00484,0.03688,1.40597
1790069056.3610501,0.01179,0.00993,-0.99713,0.00662,-0.00063,1.43784
1790069056.3610501,0.01146,-0.00199,-1.021,-0.06301,0.01075,1.54253
1790069056.570226,-0.00971,-0.026,-1.04709,0.01381,-0.05402,1.59521
1790069056.570226,0.01786,0.01693,-1.02454,-0.02661,0.00196,1.53591
1790069056.7629037,0.01705,-0.00578,-0.98004,-0.02258,-0.02678,1.56447
1790069056.7790177,0.03044,0.00691,-0.97154,-0.00081,-0.02568,1.58031
1790069056.971925,-0.0026,-0.00918,-0.98305,-0.01105,-0.02469,1.52052
1790069057.068324,0.04408,0.10437,-0.99551,0.00388,0.00397,0.15017
1790069057.1801705,-0.00519,-0.00573,-0.99631,0.00754,0.00464,-0.00134
1790069057.2755706,-0.00913,0.00931,-0.99914,0.00448,0.00262,-0.00023
1790069057.295589,-0.01469,0.00718,-1.00046,0.00592,0.00513,-9e-05
1790069057.39797,-0.01696,0.01034,-0.99983,-0.00186,0.00404,-0.01031
1790069057.5883133,-0.01437,0.01073,-0.99869,-0.00069,0.00213,-0.01165
1790069057.799964,-0.01554,0.00658,-0.99857,0.00271,0.00504,0.00253
1790069057.799964,-0.01394,0.00934,-1.0003,0.00307,0.00513,0.00075
1790069057.90864,-0.01741,0.01753,-1.0001,-0.00155,0.003,-0.00851
1790069058.0361462,-0.00208,0.0343,-0.99703,0.00627,-0.00693,-0.02741
1790069058.1010077,0.15868,-0.00428,-0.9939,0.00169,0.03918,-0.0221
1790069058.2011492,0.19349,0.00312,-0.99611,0.00453,-0.01094,-0.03897
1790069058.356614,0.04635,-0.01096,-1.00155,-0.04248,-0.00067,0.03649
1790069058.4204454,-0.11471,0.00306,-0.95799,-0.02662,0.02275,0.04213
1790069058.5497088,-0.09984,0.0189,-0.99452,0.01412,0.01554,0.00508
1790069058.6451125,0.02652,0.04029,-0.99355,0.01621,0.02771,-0.01489
1790069058.7577488,0.07686,0.00427,-0.99539,0.02595,-0.00447,0.02106
1790069058.8706646,0.00239,0.02394,-1.01608,0.04123,-0.00518,-0.02974
1790069058.9352443,-0.04761,0.01498,-0.98213,0.00453,0.02154,-0.00109
1790069059.0787315,0.02151,0.02514,-0.9758,0.0291,0.04746,-0.02062
1790069059.142127,0.02994,0.02221,-0.98928,0.00754,0.04331,-0.02551
1790069059.2370875,-0.01485,-0.01715,-0.99951,0.00486,0.0098,0.03071
1790069059.3821335,-0.0263,0.00269,-1.00671,-0.04046,0.09312,0.02623
1790069059.4463117,-0.02572,0.02,-1.00679,0.00121,-0.03696,-0.01247
1790069059.5746624,-0.01842,-0.00859,-1.01481,-0.01371,-0.01012,0.04292
1790069059.6383486,0.02476,0.03685,-0.97872,-0.00487,-0.02302,-0.02793
1790069059.7336934,0.01039,0.04105,-0.9977,0.01865,-0.01293,-0.03001
1790069059.8457327,-0.0336,-0.00516,-0.99213,-0.01824,0.02376,0.02546
1790069060.0442054,-0.00524,0.00505,-0.99728,0.01097,0.00149,-0.01314
1790069060.0558174,-0.02937,0.00292,-1.00875,0.02028,-0.03954,-0.01507
1790069060.264208,-0.22501,-0.04149,-0.99163,0.0207,0.01864,0.10979
1790069060.264208,-0.08703,0.07632,-0.99354,-0.0232,0.04275,-0.06744
1790069060.4578352,-0.0058,0.0136,-0.99924,0.00597,0.00372,0.00385
1790069060.6663613,-0.01013,0.00649,-0.99981,0.00106,0.00469,0.00642
1790069060.6663613,-0.01198,0.00656,-1.00064,0.00526,0.00237,0.01342
1790069060.873518,-0.00786,0.01795,-0.99994,0.00427,-0.00724,-0.03713
1790069060.873518,-0.00319,0.01359,-1.00075,0.00457,-0.00013,0.0003
1790069060.9851692,-0.00973,0.00988,-0.99984,0.00111,0.00723,0.00511
1790069061.0817935,-0.01051,0.00781,-1.0004,-0.00038,0.00252,-0.00881
1790069061.2884223,-0.00548,0.01176,-0.99884,0.0005,0.00321,0.00398
1790069061.2884223,-0.00917,0.00789,-0.99852,0.00174,0.00491,0.00514
1790069061.4794185,-0.00192,0.00385,-1.00082,-0.00063,0.00588,0.00589
1790069061.6864965,-0.00757,0.00607,-0.99832,0.00222,0.00805,0.00445
1790069061.89571,-0.01016,0.00871,-1.00099,0.00556,0.00463,0.00523
1790069062.055929,-0.01125,-0.00147,-0.99893,0.00187,-5e-05,0.01386
1790069062.087856,-0.01639,-0.01891,-0.9992,0.00437,-0.00021,0.00364
1790069062.2983468,-0.00754,0.01026,-0.99862,0.00209,0.00793,-0.00125
1790069062.5055914,-0.00669,0.0154,-0.99938,0.00303,0.00359,-0.01114
1790069062.5055914,-0.00509,0.02123,-0.99693,-0.00025,0.00596,-0.0153
1790069062.7112417,-0.00283,0.01985,-0.99804,0.00075,0.007,-0.01469
1790069062.922335,-0.00592,0.01273,-1.00095,-0.00064,0.00147,0.00764
1790069062.922335,-0.009,0.00511,-0.99915,0.00199,0.00578,0.01216
1790069063.1234076,-0.01154,0.00151,-0.99782,0.00116,0.00283,0.01952
1790069063.323812,-0.01105,-0.00046,-0.99999,0.00051,0.00351,0.01371
1790069063.3382587,-0.01052,0.0058,-0.99993,0.00351,0.00185,0.00323
1790069063.4998822,-0.01259,-0.00472,-0.99995,-0.00033,0.00719,0.00555
1790069063.515738,-0.01767,-0.01106,-0.99752,0.00641,0.01539,0.03043
1790069063.7419076,-0.00372,0.01038,-0.99943,-0.0003,0.0064,-0.00821
1790069063.9350643,-0.00658,0.01705,-1.00011,0.00273,0.00032,-0.00702
1790069064.144785,-0.0084,0.00618,-1.00036,0.00027,0.00329,0.01
1790069064.2580426,-0.00365,0.01483,-0.99866,0.00296,0.01447,0.00168
1790069064.3659198,-0.01274,0.01169,-0.9972,0.00681,0.00766,-0.00073
1790069064.4624157,-0.00815,-0.00381,-0.99975,0.00172,0.0065,0.04265
1790069064.5441368,-0.0163,-0.00122,-0.99759,0.00107,0.0053,0.0153
1790069064.606694,0.02321,0.0112,-0.9987,0.00597,0.0099,-0.00169
1790069064.768146,0.22138,0.05794,-1.01576,0.01179,0.00681,-0.10934
1790069064.8482306,0.14609,-0.01547,-0.99985,0.00782,-0.01995,-0.01311
1790069064.9125476,-0.0272,0.04405,-1.01175,-0.00635,-0.0294,-0.01149
1790069065.0569475,-0.14166,0.00368,-1.02544,0.03802,-0.02335,-0.00604
1790069065.1212554,-0.06747,0.00814,-1.00668,0.03454,-0.00097,0.00835
1790069065.234,0.03715,0.01431,-1.02403,-0.00647,-0.02146,0.00325
1790069065.3636136,0.05562,0.01252,-0.98546,-0.00095,-0.02888,0.01325
1790069065.4434762,-0.02012,0.00632,-0.97127,-0.01098,0.01205,0.0296
1790069065.619815,-0.06908,-0.00332,-1.00357,-0.00755,0.00119,0.00995
1790069065.6358871,-0.02569,0.00863,-1.01557,-0.01689,0.01129,0.01636
1790069065.7637,0.01934,0.01206,-1.01001,0.01379,0.03491,-0.03381
1790069065.87694,-0.02376,-0.01686,-0.97116,-0.00129,0.03251,0.04008
1790069065.9601502,-0.01679,0.02292,-0.97985,-0.01161,0.00871,-0.01163
1790069066.0686915,-0.01679,0.02292,-0.97985,-0.01161,0.00871,-0.01163
1790069066.137216,0.01144,0.03034,-1.01297,-0.0093,0.00948,-0.01984
1790069066.261271,0.01144,0.03034,-1.01297,-0.0093,0.00948,-0.01984
1790069066.341098,-0.03544,-0.01162,-1.01466,-0.00141,-0.0712,-0.00318
1790069066.4531689,-0.02078,0.01774,-1.00158,-0.02057,0.01221,-0.02345
1790069066.598712,-0.0011,0.01935,-0.99344,-0.00455,0.01394,-0.00621
1790069066.8087268,-0.13743,0.02499,-1.00491,-0.03136,0.0036,-0.00733
1790069066.8087268,-0.24675,0.00416,-0.99586,-0.00339,0.00478,0.09997
1790069066.8402958,-0.07025,0.02067,-0.99602,-0.01255,0.01558,-0.06883
1790069067.0085585,0.10074,0.0367,-1.00509,-0.00186,-0.00518,-0.06904
1790069067.1716645,0.0009,0.0086,-0.99847,0.00337,0.00089,0.00016
1790069067.4260695,-0.0039,0.00846,-0.99979,-0.00143,0.00509,0.00082
1790069067.4260695,-0.00211,0.02446,-0.9991,0.00333,0.00247,-0.02336
1790069067.541247,-0.00876,0.01244,-0.99898,0.00243,0.00452,0.00241
1790069067.5545347,-0.00667,0.01187,-0.99818,0.002,0.00578,0.00174
1790069067.7930453,-0.00237,0.01581,-0.99662,0.0014,0.0036,-0.00518
1790069067.7930453,-0.00811,0.01179,-0.99764,0.00234,0.00086,-0.00014
1790069068.0334272,-0.00178,0.01732,-0.99974,0.0039,0.00067,-0.02229
1790069068.0415769,-0.01402,0.00727,-0.99898,0.00317,0.00091,0.00883
1790069068.1793647,-0.00357,0.01377,-0.99934,0.00237,0.00331,-0.00398
1790069068.1931543,-0.00232,0.01298,-0.99662,0.0012,0.0062,-0.00145
1790069068.4509213,-0.00514,0.01072,-0.99936,0.00321,0.00293,0.00099
1790069068.4509213,-0.00838,0.01314,-0.99737,0.00178,0.00224,0.00135
1790069068.4533257,-0.00777,0.0048,-0.9984,-0.00169,0.00695,0.0257
1790069068.6452887,-0.01793,-0.01256,-0.99887,0.00036,0.00646,0.03175
1790069068.6611314,-0.00707,0.00529,-0.99808,0.00406,0.00547,0.01336
1790069068.815588,-0.00258,0.01687,-0.99817,0.0006,0.00397,-0.00129
1790069068.853626,-0.0058,0.01279,-0.99829,0.00111,0.00095,-0.00101
1790069069.0634608,-0.00744,0.00828,-1.00027,0.00439,0.00302,-0.00057
1790069069.1922963,-0.005,0.01288,-0.99847,0.00295,-0.00071,0.00138
1790069069.1922963,-0.00527,0.01058,-0.99847,0.00096,0.00762,0.0012
1790069069.2727997,-0.00496,0.01297,-0.99877,0.00326,0.0052,-0.00056
1790069069.4656334,-0.00611,0.01127,-0.99794,0.00315,0.00255,0.00106
1790069069.4817739,-0.00557,0.01035,-0.99828,0.00393,0.00203,0.00295
1790069069.6749997,-0.00772,0.01092,-0.99707,-0.00043,0.0046,0.00338
1790069069.6749997,-0.00637,0.0093,-1.00056,0.00409,0.00389,0.00089
1790069069.8845782,-0.00427,0.01395,-0.99919,0.00127,0.00373,-0.00239
1790069069.9006872,-0.00617,0.01264,-0.99828,0.00386,0.00365,-0.00126
1790069070.078734,-0.00455,0.01315,-0.9965,0.00288,0.00787,-0.00049
1790069070.0945165,-0.00478,0.01355,-0.99874,0.00198,0.00449,-0.00197
1790069070.2073271,-0.00321,0.02018,-0.99773,0.00362,0.0079,-0.00727
1790069070.4977202,-0.00342,-0.00202,-0.99863,0.00161,0.01678,0.01735
1790069070.4977202,-0.00469,0.00791,-0.99725,0.00251,0.01033,-0.00241
1790069070.6906195,-0.00643,0.01817,-0.99838,0.00142,0.00724,0.00021
1790069070.9002316,-0.00467,0.01242,-0.99961,0.00039,0.00613,-0.00079
1790069070.9002316,-0.00583,0.00958,-0.99721,0.00016,0.00185,0.00267
1790069070.9159577,0.00565,0.01834,-0.99875,0.00188,-0.00068,-0.05984
1790069071.112808,-0.00308,0.01334,-0.99702,0.00158,0.01075,0.0142
1790069071.112808,-0.01091,-0.00176,-0.99928,0.00372,-0.00061,0.01045
1790069071.2243664,-0.0098,0.00825,-0.99798,0.00303,0.00379,0.01462
1790069071.3216474,-0.00588,0.0073,-0.99729,-0.00073,0.00672,0.0051
1790069071.5155742,-0.0062,0.00895,-1.00138,0.00353,0.00345,0.00855
1790069071.723456,-0.00636,0.00819,-0.9974,0.00067,0.00429,0.00444
1790069071.9287753,-0.00491,0.01024,-0.99844,0.00067,0.0069,0.00592
1790069071.9444177,-0.00621,0.00985,-0.99938,0.0005,0.00595,0.00346
1790069072.136176,-0.00728,0.00719,-0.9968,0.00292,0.00488,0.00809
1790069072.136176,-0.00853,0.00704,-0.99846,0.00302,0.00348,0.00668
1790069072.3446145,-0.00722,0.00732,-0.99825,0.00347,0.00416,0.00785
1790069072.5371609,-0.00494,0.01092,-0.99915,0.00231,0.00459,-0.00219
1790069072.5371609,-0.0049,0.01493,-0.99845,0.0026,0.00489,-0.00722
1790069072.7471821,-0.0044,0.01896,-0.99862,0.00301,0.00295,-0.013
1790069072.9555125,-0.00283,0.01636,-0.99694,0.00308,0.00555,-0.005
1790069073.1551764,-0.00646,0.01094,-0.99848,0.00159,0.00023,0.00647
1790069073.2351964,-0.00767,0.00673,-0.99883,0.00543,0.00391,0.01284
1790069073.3801634,-0.00947,0.00543,-0.99972,0.00116,0.00279,0.01258
1790069073.5732477,-0.00462,0.00777,-0.99994,0.00549,0.00558,0.00268
1790069073.7667615,-0.00535,0.01389,-0.99843,0.00393,0.00729,-0.00398
1790069073.9758308,-8e-05,0.02101,-0.99805,0.00259,0.00402,-0.01363
1790069073.9758308,-0.00228,0.02087,-1.00073,0.00368,0.00591,-0.01319
1790069074.184153,-0.00068,0.02059,-0.9992,0.00223,0.00276,-0.00799
1790069074.184153,-0.00675,0.01239,-0.99932,0.00297,0.00369,0.00424
1790069074.3901093,-0.00818,0.0086,-0.99938,0.00193,0.00675,0.00996
1790069074.403484,-0.00825,0.00324,-0.99829,0.00066,0.00393,0.01863
1790069074.5950177,-0.01007,0.00225,-0.99959,0.00076,0.00496,0.0187
1790069074.5950177,-0.00739,0.00222,-0.99881,0.00372,0.0052,0.01448
1790069074.7999542,-0.00905,0.00448,-0.99674,0.00506,0.0057,0.00638
1790069074.7999542,-0.0051,0.01131,-0.99891,0.00451,0.00354,-0.00425
1790069075.0041683,-0.00309,0.01969,-0.99854,0.00287,0.00573,-0.01218
1790069075.0191193,-0.00058,0.024,-0.9997,0.00302,-0.00123,-0.02546
1790069075.213008,-0.00144,0.02755,-1.00009,0.00304,0.00488,-0.01968
1790069075.2196143,-0.00254,0.02221,-0.99926,0.00525,0.00443,-0.01379
1790069075.4157023,-0.00435,0.01736,-0.99689,0.00202,0.00358,0.00247
1790069075.4183178,-0.00542,0.01273,-1.00048,0.0024,0.00448,0.00655
1790069075.6193917,-0.00847,0.00737,-0.99892,0.0049,0.00283,0.01848
1790069075.6261363,-0.00972,0.00133,-0.99929,0.00268,0.00348,0.02252
1790069075.8241315,-0.00988,-0.00193,-0.99907,1e-05,0.00653,0.02487
1790069075.8241315,-0.01067,-0.00162,-1.00056,0.00177,0.00733,0.0189
1790069076.0306098,-0.01025,0.00029,-0.99785,0.0025,0.00389,0.01272
1790069076.2311523,-0.0094,0.00732,-1.00022,0.00325,0.0037,0.00188
1790069076.437991,-0.00352,0.02155,-0.99913,-0.00014,-0.00063,-0.02166
1790069076.4390569,0.00024,0.02459,-0.9988,0.00119,0.00364,-0.02007
1790069076.6497533,-0.00224,0.02678,-0.99822,0.0049,0.00713,-0.01931
1790069076.652699,-0.00032,0.02561,-0.99932,0.00176,0.00299,-0.01974
1790069076.8485067,0.00038,0.02422,-0.99956,0.00394,0.00386,-0.01571
1790069077.050428,-0.00723,0.01319,-0.99927,0.00252,0.00359,0.00811
1790069077.2582822,-0.0104,-0.0001,-1.00081,0.00332,0.00519,0.0196
1790069077.4588416,-0.00863,0.00216,-0.99922,0.00343,0.00488,0.00878
1790069077.6673932,-0.00355,0.01974,-0.99974,6e-05,0.00051,-0.02007
1790069077.7833838,0.0001,0.02439,-0.9974,0.00442,0.00374,-0.01527
1790069077.824659,-0.00551,0.02119,-1.00052,0.00155,0.00412,-0.0053
1790069078.0713475,-0.00573,0.01456,-0.9999,0.00355,0.00454,0.0077
1790069078.0713475,-0.00865,0.00289,-0.99805,0.00524,0.00346,0.02266
1790069078.2640638,-0.01128,-0.00344,-0.99894,0.00058,0.00633,0.02555
1790069078.283005,-0.01294,-0.00444,-0.99861,0.00137,0.00534,0.02594
1790069078.4784055,-0.00232,0.01918,-0.99746,0.0037,0.00283,-0.0193
1790069078.6831949,-0.00058,0.02788,-0.99799,-0.0002,0.00703,-0.02904
1790069078.6994634,-0.0,0.02873,-0.99924,0.00415,0.00566,-0.0193
1790069078.896119,-0.00023,0.02171,-0.99971,-0.00031,-0.00059,-0.00938
1790069078.9051766,-0.00851,0.01189,-0.99953,0.00217,0.0063,0.0113
1790069079.1001256,-0.01043,0.00011,-0.99974,0.00321,0.00464,0.02724
1790069079.1046476,-0.01303,-0.00522,-0.99695,0.00134,0.00283,0.02838
1790069079.2566135,-0.01174,-0.00517,-0.99894,0.00389,0.00428,0.02157
1790069079.2726974,-0.00564,0.00547,-0.99887,0.00243,0.00286,0.00188
1790069079.511808,-0.00158,0.01707,-1.0008,0.00349,0.00115,-0.01618
1790069079.5140796,-0.00178,0.02685,-0.99983,0.00313,0.00344,-0.03009
1790069079.715294,-0.00129,0.02618,-0.99857,0.00222,0.00708,-0.01324
1790069079.724659,-0.00433,0.01554,-0.99943,7e-05,0.00353,0.00613
1790069079.9092696,-0.0096,0.0043,-0.99775,0.00263,0.00189,0.02232
1790069079.923312,-0.01204,-0.00312,-0.99979,0.00098,0.00468,0.02556
1790069080.1247897,-0.01138,-0.00261,-0.99802,0.00457,0.00362,0.01609
1790069080.1247897,-0.00918,0.00175,-0.99928,0.00329,0.00414,0.00171
1790069080.285499,-0.00387,0.01726,-0.99861,0.0016,0.00211,-0.01726
1790069080.319487,0.00031,0.02623,-0.99915,0.00075,0.00154,-0.02591
1790069080.5318735,-0.00097,0.02583,-0.99854,0.00329,0.00489,-0.01229
1790069080.5318735,-0.00551,0.01427,-0.99883,0.00342,0.00503,0.00908
1790069080.7253666,-0.01091,0.00031,-0.99791,0.00507,0.00577,0.02643
1790069080.7253666,-0.01171,-0.00334,-0.99746,0.00093,0.00824,0.02169
1790069080.94286,-0.00835,0.00593,-0.9998,0.00121,0.00361,-0.00447
1790069081.1436214,0.00088,0.02917,-0.99931,0.00171,0.00633,-0.0253
1790069081.1436214,-0.00359,0.02285,-0.99945,0.00128,0.00128,-0.00139
1790069081.1436214,-0.00761,0.00564,-0.9967,0.00134,0.00552,0.02016
1790069081.3043387,-0.0097,-0.00395,-0.99854,0.00425,0.00487,0.03222
1790069081.356963,-0.01175,-0.00357,-1.00105,0.00281,0.00571,0.02061
1790069081.549409,-0.01118,0.00041,-0.99959,0.00046,0.0032,0.00599
1790069081.5653968,-0.0039,0.0125,-0.99805,-0.00134,0.00615,-0.01527
1790069081.758937,-0.00193,0.0257,-0.99994,0.0014,-0.00053,-0.03181
1790069081.9682326,-0.00258,0.02277,-1.00116,0.00449,0.00324,-0.00378
1790069082.1733534,-0.0102,-0.00114,-0.9994,0.00189,0.00321,0.02903
1790069082.1744297,-0.0137,-0.00635,-1.00127,0.00181,0.00557,0.02681
1790069082.3023193,-0.00952,0.00117,-0.99806,0.00388,0.00374,0.00548
1790069082.3773153,-0.00268,0.01792,-0.99834,0.00417,0.00333,-0.02182
1790069082.5801144,0.00041,0.02918,-0.99819,0.00196,0.00701,-0.02102
1790069082.7876484,-0.00226,0.01568,-0.99866,0.00188,0.00671,0.0102
1790069082.986651,-0.00847,0.00417,-0.99986,0.00231,0.00244,0.02497
1790069082.9931,-0.01103,-0.00176,-1.00012,0.00151,0.0038,0.01645
1790069083.1978824,-0.00449,0.00976,-0.99886,0.00457,0.00509,-0.00728
1790069083.1988804,-0.00183,0.02401,-0.99772,0.00442,0.00311,-0.0281
1790069083.3056386,0.00279,0.03263,-0.99874,0.0027,0.00537,-0.03014
1790069083.604738,-0.00109,0.02581,-0.99978,0.00432,0.00368,-0.00994
1790069083.607772,-0.00807,0.00933,-0.99882,0.00448,0.00387,0.0187
1790069083.6089606,-0.01028,-0.0044,-0.9999,0.00261,0.00329,0.02686
1790069083.813315,-0.00959,-0.00398,-0.99815,0.00161,0.00481,0.02081
1790069083.8262138,-0.00679,0.00497,-0.99859,-0.00029,0.00366,-0.00187
1790069084.0162165,-0.00073,0.0233,-0.99596,0.00189,0.00289,-0.02626
1790069084.0278306,0.00277,0.0319,-1.00005,0.00246,0.00272,-0.03063
1790069084.2215397,-0.00183,0.01903,-0.99896,0.00217,0.00425,-0.00055
1790069084.223027,-0.00869,0.00278,-0.99913,0.00221,0.00197,0.02499
1790069084.4239488,-0.01189,-0.00457,-0.99745,0.00211,0.00492,0.02669
1790069084.6313393,-0.00272,0.01997,-0.99896,0.00362,0.00394,-0.02459
1790069084.6450176,0.00249,0.02858,-1.00042,0.00356,0.00113,-0.02286
1790069084.8343916,-0.00218,0.02039,-0.99855,0.0011,0.00547,-0.00229
1790069084.8398955,-0.01094,0.0016,-0.99613,0.00183,0.00261,0.02941
1790069085.0244563,-0.01078,-0.00703,-0.99911,0.00441,0.00842,0.02614
1790069085.2433226,-0.00019,0.02665,-0.9989,0.00294,0.00298,-0.033
1790069085.3270972,-0.00427,0.01357,-0.99963,0.00365,0.00403,0.01329
1790069085.4518044,-0.01011,-0.0013,-0.99898,0.00441,0.00212,0.02794
1790069085.6588526,-0.00591,0.01013,-0.99866,-0.00041,0.00658,-0.00907
1790069085.8610716,0.00187,0.02763,-1.00149,0.0035,0.00222,-0.01583
1790069086.0341408,-0.00738,0.00865,-0.99976,0.00423,0.00304,0.02065
1790069086.0375438,-0.01174,-0.00599,-0.999,0.0035,0.005,0.02946
1790069086.2701204,-0.00461,0.01475,-0.999,0.00427,0.00209,-0.01766
1790069086.326411,0.00354,0.03137,-0.99847,0.00322,0.00423,-0.03411
1790069086.4724917,-0.00279,0.02093,-0.99813,0.00035,0.0038,0.0011
1790069086.677805,-0.00987,0.00191,-0.99841,-0.00027,0.00614,0.02985
1790069086.6846006,-0.01197,-0.00516,-0.9984,0.00197,0.00442,0.02519
1790069086.8838062,-0.00644,0.0076,-0.99934,0.00322,0.00565,-0.00485
1790069087.0379694,-0.00536,0.01294,-0.99772,0.00198,0.00471,0.01503
1790069087.042103,-0.01266,-0.0031,-0.99734,0.00271,0.00406,0.03147
1790069087.2912996,-0.01059,-0.00019,-0.99713,0.0056,0.00749,0.01269
1790069087.3004928,-0.00374,0.01668,-1.00136,0.00434,0.00403,-0.02206
1790069087.494649,0.00171,0.03287,-0.9985,0.00535,0.0043,-0.03643
1790069087.494649,-0.001,0.01766,-0.99866,-0.00041,0.00059,0.00463
1790069087.7012208,-0.01074,-0.0004,-0.99902,0.00255,0.00032,0.03015
1790069087.7039907,-0.0129,-0.00746,-0.99764,0.00432,0.00477,0.02478
1790069087.888742,-0.00521,0.01372,-0.99817,0.00149,0.00744,-0.01958
1790069087.9048884,-3e-05,0.02688,-0.99826,0.00417,0.00326,-0.03449
1790069088.0172174,0.00092,0.02243,-0.99942,0.00196,0.00358,-0.00751
1790069088.051166,-0.0072,0.00838,-0.99901,0.00239,0.0028,0.02373
1790069088.17654,-0.01465,-0.00719,-0.99756,0.00284,0.00134,0.03569
1790069088.3199248,-0.01011,-0.00146,-0.99968,0.00309,0.00623,0.00957
1790069088.351814,-0.00324,0.01843,-1.00121,0.00087,0.00166,-0.02587
1790069088.4628859,0.00147,0.03258,-0.99653,-0.00138,0.00402,-0.03443
1790069088.6018515,-0.00049,0.02001,-0.99981,0.00213,0.00279,0.00349
1790069088.743264,-0.0103,-0.00021,-0.99977,0.00079,0.00303,0.03293
1790069088.7639513,-0.0117,-0.00778,-0.99783,0.00305,0.00749,0.02731
1790069088.8737123,-0.00666,0.0057,-0.99965,0.00333,0.0048,-0.00717
1790069089.0415242,0.00037,0.02644,-0.99776,0.00443,0.00194,-0.03404
1790069089.0575802,0.00164,0.02605,-0.99651,-0.00049,0.0061,-0.01313
1790069089.1990569,-0.00869,0.00935,-0.99991,0.00092,0.00691,0.02085
1790069089.3336697,-0.01155,-0.00328,-0.99675,0.0021,0.00307,0.02732
1790069089.386437,-0.00754,0.00713,-0.99921,-0.00056,0.00241,-0.00954
1790069089.4862418,-0.00057,0.02565,-0.99805,0.00263,0.00565,-0.03236
1790069089.651584,6e-05,0.02933,-0.99808,0.0012,0.00402,-0.02139
1790069089.6871014,-0.00621,0.01465,-1.00029,0.0011,0.00329,0.01469
1790069089.8004785,-0.01196,-0.00683,-0.99881,0.00496,0.00422,0.03446
1790069090.0060272,-0.00067,0.01951,-0.99778,0.00265,0.00367,-0.02666
1790069090.103167,0.00314,0.03157,-1.00104,0.00149,0.00333,-0.03533
1790069090.2560875,-0.0027,0.02733,-0.99902,0.00307,0.00466,-0.00738
1790069090.2858758,-0.0076,0.00604,-0.998,0.00602,0.00285,0.02437
1790069090.401751,-0.01145,-0.00402,-1.00074,0.00238,0.00212,0.02614
1790069090.5413477,-0.00787,0.00202,-1.00012,0.00341,0.0058,-0.00084
1790069090.5852847,-0.00091,0.02475,-0.9987,0.00213,0.00227,-0.03156
1790069090.7055902,0.00046,0.02818,-1.0013,0.00104,0.00477,-0.01765
1790069090.8432794,-0.00657,0.01005,-0.99811,0.00349,0.00135,0.02
1790069090.8856173,-0.01162,-0.0064,-0.99812,0.00067,0.00328,0.03362
1790069090.9780056,-0.0107,-0.00136,-0.99845,0.0014,0.00198,0.00545
1790069091.1242287,4e-05,0.02121,-0.99694,0.00271,0.00335,-0.02744
1790069091.2857041,0.0022,0.03272,-0.99985,0.00384,0.00361,-0.03171
1790069091.286699,-0.00253,0.01736,-0.99996,0.00195,0.0037,0.00982
1790069091.4013472,-0.01193,-0.00188,-0.99825,0.00147,0.00506,0.03132
1790069091.5400202,-0.013,-0.00566,-0.99938,0.00138,0.00579,0.02587
1790069091.728427,-0.00069,0.02593,-0.99968,0.00427,0.00175,-0.03289
1790069091.8119094,-2e-05,0.02871,-1.00137,0.00287,0.00338,-0.02038
1790069091.9571235,-0.00252,0.01498,-0.99925,0.00216,0.00532,0.01286
1790069092.0954447,-0.01257,-0.00645,-0.99792,0.00193,0.00346,0.03684
1790069092.1044154,-0.01355,-0.0049,-0.99797,0.00067,0.00565,0.01371
1790069092.2356663,-0.00091,0.01702,-0.99886,0.00356,0.00316,-0.02145
1790069092.367469,0.00189,0.0319,-0.99913,-0.00023,0.0003,-0.04095
1790069092.4015596,0.0003,0.02424,-0.9992,0.00399,0.00137,-0.0077
1790069092.496413,-0.00857,0.00288,-0.99963,0.00317,-0.00048,0.02887
1790069092.639992,-0.01216,-0.00816,-1.00004,0.00316,0.00399,0.02754
1790069092.7835,-0.00635,0.00833,-1.00155,0.00189,0.00327,-0.00911
1790069092.799618,-0.00317,0.02453,-0.99816,0.00154,0.00082,-0.03133
1790069093.0618227,-0.00279,0.02004,-0.99949,0.00471,0.00312,0.0046
1790069093.10364,-0.01066,-0.00045,-0.99945,0.00216,0.00264,0.03217
1790069093.2006414,-0.01341,-0.00773,-0.99802,0.00047,0.00617,0.02534
1790069093.339543,-0.00786,0.00415,-0.99911,0.00531,0.00253,-0.00365
1790069093.478464,0.00037,0.02755,-1.00027,-5e-05,0.00538,-0.03468
1790069093.603315,0.00024,0.02771,-0.99986,0.00325,0.00487,-0.0221
1790069093.6241925,-0.00526,0.01413,-0.99902,0.00429,0.00202,0.01939
1790069093.759095,-0.01193,-0.0006,-0.99768,0.0005,0.00661,0.03095
1790069093.844295,-0.00798,0.00504,-0.99975,0.00134,0.00361,-0.00328
1790069094.0478354,-0.00148,0.02305,-0.99876,-0.0008,0.00424,-0.03017
1790069094.05734,0.00241,0.02976,-0.99752,0.00353,0.00421,-0.02407
1790069094.2559824,-0.01014,-0.00497,-0.99871,0.00395,0.0026,0.03547
1790069094.3744714,-0.0128,-0.00647,-0.99864,0.00597,0.00714,0.02166
1790069094.4643798,-0.00381,0.01115,-0.99986,0.00522,0.00407,-0.01717
1790069094.66634,-0.00086,0.03217,-1.00037,0.00229,0.00294,-0.03826
1790069094.8699298,-0.00983,0.0028,-0.99835,0.00139,0.00094,0.02993
1790069094.8719103,-0.01183,-0.0086,-0.99897,0.00127,0.00333,0.02672
1790069095.075421,-0.00671,0.00562,-0.99919,-9e-05,0.00276,-0.00201
1790069095.0765684,0.00027,0.02624,-0.99969,0.00173,0.00229,-0.03531
1790069095.2794101,-0.00016,0.03009,-0.99878,0.0017,0.00568,-0.02633
1790069095.2826214,-0.00185,0.01722,-1.00013,0.00362,0.0041,0.01048
1790069095.3768694,-0.01231,-0.00408,-0.99984,0.00439,0.00406,0.03555
1790069095.484889,-0.01101,-0.00087,-0.9975,0.003,0.00854,0.00642
1790069095.6864636,-0.00029,0.025,-0.99991,0.00103,0.0028,-0.03236
1790069095.8936582,-0.00631,0.01322,-0.99969,0.00071,0.00578,0.01602
1790069095.901705,-0.01086,-0.00506,-0.99742,0.00229,0.00163,0.03244
1790069096.0961237,-0.0113,-0.00264,-1.0001,0.00454,0.00487,0.01051
1790069096.1030202,-0.00318,0.02032,-0.9989,0.00343,0.00269,-0.02991
1790069096.304873,-0.00268,0.01413,-0.9968,0.00186,0.00407,0.01438
1790069096.3807507,-0.01182,-0.00419,-0.99844,0.0,0.00528,0.03342
1790069096.50562,-0.01401,-0.00924,-0.99849,0.00494,0.00365,0.02748
1790069096.7129648,-0.00826,0.00362,-0.99819,0.00094,0.00369,-0.00127
1790069096.714325,-0.00296,0.02167,-1.00013,0.00252,0.00479,-0.03236
1790069096.9153452,0.00022,0.0319,-1.00006,0.00319,0.0077,-0.02733
1790069096.9153452,-0.00516,0.01464,-0.99911,0.00278,0.00285,0.01555
1790069097.1233282,-0.00935,-0.00634,-1.00014,-9e-05,0.00168,0.03627
1790069097.3250146,-0.00412,0.01537,-0.99807,0.00202,0.00401,-0.02603
1790069097.4014604,-0.00302,0.01853,-0.99989,0.00647,0.00399,0.0077
1790069097.5321646,-0.01046,-0.00202,-1.00021,0.00431,0.00313,0.03249
1790069097.737717,-0.01,-0.00373,-0.99875,0.00179,0.00581,0.0145
1790069097.739714,-0.00346,0.01538,-1.00029,0.00379,0.0021,-0.02362
1790069097.9529903,-0.0017,0.02392,-1.00073,0.00252,0.00195,-0.00123
1790069098.1443005,-0.01017,0.0018,-0.99872,0.00265,0.0045,0.03054
1790069098.351448,-0.0039,0.01652,-0.9982,0.00168,0.00505,-0.02627
1790069098.4045188,-0.00245,0.01911,-0.99981,0.00317,0.00446,0.00592
1790069098.561145,-0.01134,-0.00187,-0.99954,0.00351,0.00486,0.03496
1790069098.755575,-0.01197,-0.00499,-0.99871,0.00205,0.00936,0.01324
1790069098.7628822,-0.00419,0.01614,-0.99862,0.00236,0.00726,-0.02152
1790069098.9666865,-8e-05,0.03159,-1.00092,0.00193,0.00357,-0.03244
1790069098.9776266,-0.0042,0.01647,-0.99738,-0.00098,0.00379,0.01133
1790069099.16707,-0.01146,-0.00309,-1.00037,0.00388,0.00213,0.03257
1790069099.1793666,-0.00985,-0.00165,-0.99998,0.00175,0.00869,0.01367
1790069099.3736143,-0.00357,0.0179,-0.99899,0.00154,0.00126,-0.02706
1790069099.3806434,-0.00096,0.02788,-0.99762,-0.00122,0.00621,-0.02545
1790069099.575229,-0.00465,0.01322,-0.99818,0.00168,0.004,0.01941
1790069099.5817764,-0.00945,-0.00345,-0.99767,0.00572,0.00057,0.03194
1790069099.7840533,-0.01185,-0.00493,-0.99973,0.00297,0.0054,0.01578
1790069099.7871587,-0.00179,0.01973,-0.99862,0.00378,0.00222,-0.02745
1790069099.9905093,0.00139,0.03191,-0.99824,0.00162,0.00466,-0.02679
1790069100.0045373,-0.00285,0.01918,-0.99888,0.00612,0.00336,0.00773
1790069100.1926658,-0.00853,-0.0024,-0.99948,0.00432,0.00406,0.03051
1790069100.1997473,-0.0101,-0.00291,-0.99831,0.00288,0.00407,0.01215
1790069100.3947747,-0.00355,0.02046,-0.99823,0.00353,0.00599,-0.0307
1790069100.401612,-0.00563,0.01046,-0.99778,0.00605,0.0001,0.0215
1790069100.6027694,-0.01266,-0.00767,-0.99894,0.00121,0.00166,0.03446
1790069100.6027694,-0.00768,0.00568,-0.99995,0.00456,0.00514,-0.00731
1790069100.809679,0.00207,0.02697,-0.99802,0.00191,0.00514,-0.03351
1790069100.8110197,0.00298,0.02579,-0.99854,0.00218,0.00583,-0.0109
1790069101.0126724,-0.00892,0.00646,-0.99672,0.00052,0.00246,0.02673
1790069101.0186915,-0.01156,-0.00637,-0.99782,0.00345,0.00195,0.02613
1790069101.2181416,-0.003,0.01374,-0.99862,0.0023,0.0021,-0.01804
1790069101.2191136,0.00144,0.02969,-1.00125,0.00523,0.00269,-0.03269
1790069101.4087017,-0.00427,0.01789,-0.99872,0.00352,0.00486,0.0095
1790069101.413802,-0.01251,-0.00491,-0.99877,0.00372,0.0025,0.03496
1790069101.6239562,-0.00942,0.00012,-1.0006,0.00196,0.00377,0.00269
1790069101.630599,-0.00314,0.02403,-0.99864,-0.00052,0.00311,-0.03134
1790069101.8321645,0.00037,0.02666,-0.99972,0.00145,0.00271,-0.01053
1790069101.8321645,-0.00741,0.00362,-0.99908,0.0034,0.00497,0.02933
1790069102.038651,-0.01269,-0.00508,-1.00042,0.00132,0.00539,0.02439
1790069102.0446215,-0.00738,0.01281,-0.99964,0.00201,0.00021,-0.01911
1790069102.241744,0.00288,0.02909,-0.99955,0.00297,0.00086,-0.03168
1790069102.241744,-0.00496,0.02047,-0.99691,0.00273,0.00231,0.00476
1790069102.415501,-0.01229,-0.0033,-0.99766,0.00378,0.00285,0.0341
1790069102.4216373,-0.00893,-0.00231,-1.00008,0.00355,0.00401,0.00593
1790069102.651443,-0.00419,0.02277,-0.99849,0.00343,0.00342,-0.02917
1790069102.651443,0.00067,0.02876,-0.9979,0.00109,0.00451,-0.02339
1790069102.8529682,-0.00467,0.01261,-1.00021,0.00269,0.00331,0.01969
1790069103.0607128,-0.00808,0.00267,-0.99934,0.00115,0.00577,-0.00251
1790069103.0628119,0.00087,0.02821,-0.99847,0.0034,0.0042,-0.03526
1790069103.262141,-0.00105,0.02699,-0.99813,0.00152,0.00242,-0.01102
1790069103.269165,-0.0074,0.00281,-0.99831,0.00211,0.00294,0.03204
1790069103.2830796,-0.01174,-0.00566,-0.99897,-0.00081,0.00121,0.0233
1790069103.47023,-0.00499,0.01173,-1.0004,0.00431,0.00194,-0.02311
1790069103.6716185,-0.00064,0.03192,-0.99914,0.00347,0.00255,-0.03516
1790069103.677491,-0.00353,0.01601,-0.99907,0.00203,0.00459,0.01319
1790069103.8801713,-0.01005,-0.00352,-1.0003,0.00023,0.00477,0.03445
1790069103.8801713,-0.01214,-0.00487,-0.99993,0.00326,0.00283,0.01683
1790069104.084233,-0.00237,0.02028,-0.9992,0.00281,0.00595,-0.03139
1790069104.0940132,-0.0065,0.01453,-0.99959,0.00098,0.00181,0.01908
1790069104.3044043,-0.01124,-0.00641,-0.99867,0.00237,0.00333,0.02614
1790069104.3044043,-0.00744,0.00758,-0.99827,0.00217,0.00182,-0.01368
1790069104.422382,0.00137,0.03091,-0.99757,0.00079,0.00495,-0.03552
1790069104.503939,-0.00417,0.02117,-0.99742,0.00053,0.00557,0.00526
1790069104.6998281,-0.01244,-0.00515,-0.99984,0.00367,0.00268,0.03631
1790069104.9015627,-0.01031,-0.00147,-1.00048,0.00185,0.0055,0.01171
1790069104.9061732,-0.00147,0.01878,-0.99847,0.00463,0.00046,-0.02848
1790069105.109843,-0.00596,0.01134,-0.99742,0.00406,0.00412,0.02359
1790069105.1166456,-0.0129,-0.00794,-0.99961,0.00131,0.00585,0.03201
1790069105.3116615,-0.00623,0.0092,-0.9986,0.00095,0.00388,-0.01414
1790069105.3250062,-0.00041,0.02963,-0.99919,0.00397,0.0034,-0.03132
1790069105.4357865,0.00109,0.02997,-1.00102,9e-05,0.0033,-0.02529
1790069105.5250711,-0.00677,0.01368,-1.00053,0.00113,0.00213,0.02296
1790069105.7204278,-0.00884,0.0023,-0.99989,0.00222,0.00545,0.00245
1790069105.9290657,-0.00178,0.02548,-0.99933,0.00365,0.00131,-0.03594
1790069105.9420207,0.00203,0.03235,-0.99828,0.00226,0.00525,-0.02707
1790069106.1300914,-0.00621,0.01011,-0.99785,0.00033,0.00252,0.02219
1790069106.1441064,-0.01254,-0.00711,-0.99894,0.00328,0.00212,0.03144
1790069106.338235,-0.00457,0.00883,-0.99915,0.00119,0.00202,-0.0122
1790069106.3450506,-0.00076,0.02921,-0.99918,0.00365,0.00185,-0.03366
1790069106.4350011,-0.00232,0.02545,-0.99891,-0.00062,0.00475,-0.00041
1790069106.545973,-0.00934,-0.00109,-0.99742,0.0021,0.00361,0.03337
1790069106.7477894,-0.00275,0.02127,-1.00049,0.00211,0.0042,-0.03022
1790069106.9488022,-0.00612,0.01096,-1.00047,0.00442,0.00308,0.02539
1790069106.9556668,-0.01181,-0.00683,-0.99976,0.00388,0.00251,0.03008
1790069107.1576705,-0.00722,0.00703,-0.99916,0.00378,0.00124,-0.01414
1790069107.1643243,-0.0014,0.02807,-0.99815,0.0022,0.00182,-0.03482
1790069107.365274,-0.00544,0.00894,-1.00011,0.00156,0.00099,0.0244
1790069107.5663147,-0.01198,-0.00786,-0.99847,0.00387,0.00237,0.03518
1790069107.5732408,-0.01109,-0.00746,-0.99878,0.00236,0.00639,0.01833
1790069107.7740946,-0.00293,0.01383,-0.99774,0.00427,0.00454,-0.02078
1790069107.7755773,0.00184,0.03104,-0.99976,0.00368,0.00211,-0.03491
1790069107.976735,-0.00443,0.01669,-0.99714,0.00134,0.00485,0.01367
1790069107.9834025,-0.00981,-0.00372,-0.99855,0.00241,0.00368,0.03157
1790069108.1791658,-0.01148,-0.00398,-0.99655,0.005,0.00093,0.01323
1790069108.1846812,-0.01088,0.00198,-0.99997,0.00387,0.00317,-0.00571
1790069108.3863587,-0.0018,0.02163,-0.99752,-0.00054,0.00351,-0.03393
1790069108.3932917,0.00133,0.03118,-0.99966,0.00136,0.00297,-0.03595
1790069108.5875418,0.00062,0.02736,-0.99829,0.00552,0.0033,-0.01169
1790069108.796553,-0.01059,0.00051,-0.99927,0.00312,0.001,0.02977
1790069108.796553,-0.00941,-0.00141,-0.99814,0.00136,0.0041,0.01419
1790069109.00163,-0.00573,0.01023,-0.99903,0.00197,0.00103,-0.01568
1790069109.0049756,-0.00039,0.02221,-0.99807,0.00062,0.00438,-0.03348
1790069109.2061725,-0.00078,0.02695,-0.99908,-4e-05,0.00724,-0.02655
1790069109.3172534,-0.00278,0.0249,-0.99716,0.00115,0.00473,-0.00715
1790069109.4438202,-0.00245,0.01905,-0.99712,0.00076,0.0064,0.00453
1790069109.6159797,-0.00677,0.0107,-0.99779,0.00212,0.00543,0.01769
1790069109.6227689,-0.00628,0.00869,-0.99788,0.00135,0.00591,0.01982
1790069109.8306832,-0.00956,0.00332,-1.00035,0.00486,0.00069,0.02574
1790069110.0250733,-0.00951,-0.00137,-0.99912,0.00258,0.00447,0.02669
1790069110.2358525,-0.00955,-0.00181,-0.99971,0.00336,0.00525,0.01227
1790069110.434959,-0.0065,0.00808,-0.99808,0.00019,0.00116,-0.00919
1790069110.8429673,-0.00382,0.01994,-0.99878,0.00394,0.00301,-0.02286
1790069110.8429673,-0.00055,0.02698,-0.99939,0.00204,0.00769,-0.0148
1790069111.0516367,-0.00186,0.01739,-0.99866,0.00246,0.00214,0.00548
1790069111.0658772,-0.00669,0.00637,-0.99901,0.00089,0.00338,0.02139
1790069111.2533216,-0.01152,-0.00197,-0.99917,0.00295,0.00175,0.03099
1790069111.2601159,-0.01127,-0.00608,-0.99789,0.00074,0.00483,0.02612
1790069111.3929708,-0.00986,0.00218,-0.99957,0.00269,0.00247,0.01178
1790069111.467184,-0.00726,0.00969,-0.99772,-0.00012,0.00638,-0.00923
1790069111.6670585,0.00212,0.02767,-0.99789,0.00144,0.0042,-0.02486
1790069111.865173,-0.01018,-8e-05,-0.99895,-4e-05,0.00353,0.02598
1790069112.0726924,-0.01068,-0.00048,-0.99699,0.00117,0.0047,0.01122
1790069112.4617746,-0.00115,0.02512,-0.99866,0.0029,0.00193,-0.03183
1790069112.4617746,0.001,0.02753,-0.99778,0.00425,0.00386,-0.01566
1790069112.6911428,-0.00261,0.01687,-0.99877,0.00241,0.00369,0.00567
1790069112.8924444,-0.01131,-0.00147,-0.99912,0.00195,0.00315,0.01158
1790069113.0932784,-0.00399,0.01418,-0.99889,0.00469,0.0044,-0.01522
1790069113.1004665,0.00032,0.02556,-0.99922,0.0047,0.00393,-0.02968
1790069113.3017373,-0.00281,0.02126,-0.9979,0.00026,0.00257,0.00088
1790069113.461849,-0.00765,0.00546,-0.99938,-0.00052,0.00326,0.02181
1790069113.4749496,-0.01186,-0.00487,-0.99939,0.00205,0.00318,0.03037
1790069113.7108543,-0.01138,-0.00155,-0.99847,0.00264,0.00529,0.00816
1790069113.9120827,0.00265,0.02657,-0.99988,0.00282,0.00307,-0.03337
1790069114.1209688,-0.00198,0.02291,-0.99911,0.00187,0.00704,-0.00376
1790069114.321788,-0.01051,-0.00301,-0.99927,-0.00152,0.00294,0.02799
1790069114.3295388,-0.0125,-0.00294,-0.99918,-0.00192,0.00658,0.01972
1790069114.4681022,-0.00708,0.00619,-0.99812,0.00401,0.00332,-0.00362
1790069114.4681022,-0.00098,0.02005,-0.99847,0.00181,0.00559,-0.02644
1790069114.7338948,0.00267,0.03067,-0.99697,0.00241,0.00399,-0.03242
1790069114.7338948,-0.00167,0.02304,-0.99824,0.00035,0.00309,-0.00573
1790069114.9398596,-0.0076,0.00969,-0.99916,0.00186,0.00246,0.02334
1790069114.9408665,-0.01242,-0.00369,-0.99791,0.00289,0.00331,0.03219
1790069115.1455526,-0.01042,-0.00728,-0.99965,0.00297,0.00676,0.02135
1790069115.1455526,-0.00828,0.00603,-0.99908,0.00241,0.00133,-0.00265
1790069115.3452904,-0.00166,0.01957,-1.00064,0.00388,0.00674,-0.02794
1790069115.3522797,0.00287,0.03115,-0.9977,0.00267,0.0023,-0.0372
1790069115.4837427,-0.0013,0.02676,-0.99969,-0.0004,0.00497,-0.0168
1790069115.5527954,-0.00577,0.01414,-1.00031,0.00601,0.00401,0.01641
1790069115.7589798,-0.01127,-0.00452,-0.99791,0.00323,0.00029,0.03531
1790069115.760057,-0.01278,-0.00902,-0.99671,0.00228,0.00421,0.03366
1790069115.9632034,-0.01042,-0.0036,-0.99972,0.00434,0.00466,0.01261
1790069115.9632034,-0.00567,0.01065,-1.00005,0.00458,0.00582,-0.0156
1790069116.1686804,-0.0007,0.0244,-0.99986,0.00088,0.00756,-0.02993
1790069116.1841915,0.00045,0.02911,-1.00044,0.00461,0.006,-0.02588
1790069116.372836,-0.00262,0.02159,-1.00035,0.00191,0.00588,0.00276
1790069116.4840555,-0.01158,-0.00777,-0.99894,0.00091,0.00709,0.02995
1790069116.580734,-0.01452,-0.00605,-0.99852,0.00367,0.00829,0.01434
1790069116.7822073,-0.00166,0.0217,-1.00014,-0.00056,0.00254,-0.0281
1790069116.9841251,0.00166,0.03275,-0.99702,0.00216,0.00392,-0.03777
1790069116.9891236,-0.00045,0.02519,-0.99826,0.0,0.0032,-0.00797
1790069117.1918604,-0.00757,0.00756,-0.99719,0.00228,0.00456,0.02337
1790069117.197235,-0.01173,-0.00543,-0.99936,0.00309,0.00408,0.03774
1790069117.3958561,-0.015,-0.01198,-1.00096,0.00434,0.00404,0.03272
1790069117.3978746,-0.00919,-0.00035,-0.99903,0.00205,0.00575,0.00264
1790069117.6022043,-0.0032,0.01907,-0.99738,0.00181,0.00379,-0.03053
1790069117.8063014,-0.00325,0.01309,-0.99954,0.00563,0.00296,0.01798
1790069117.807732,-0.01011,-0.00225,-0.9991,0.00386,0.00234,0.03428
1790069118.0103242,-0.01325,-0.00974,-0.99839,0.00061,0.00329,0.0306
1790069118.01338,-0.01281,-0.00367,-0.99885,0.00132,0.00665,0.00921
1790069118.2157104,-0.00372,0.01492,-1.00005,-0.00074,0.00325,-0.01897
1790069118.2169256,0.00035,0.02792,-0.99834,0.00167,0.00135,-0.03447
1790069118.4203448,0.00267,0.03252,-0.99842,0.00312,0.00339,-0.03047
1790069118.483259,-0.00995,0.00314,-0.99823,0.00408,0.00221,0.03102
1790069118.625122,-0.01301,-0.00974,-0.9974,0.00491,0.00064,0.03938
1790069118.8306954,-0.01244,-0.00922,-0.9999,0.00104,0.00549,0.02206
1790069118.8306954,-0.01028,0.00509,-1.00001,0.00218,0.00261,-0.00377
1790069119.034508,-0.00383,0.02126,-0.99862,0.00135,0.00639,-0.03044
1790069119.037098,0.00364,0.02967,-0.99956,0.00246,0.0018,-0.0313
1790069119.243751,-0.00181,0.02309,-0.99801,0.0014,0.00083,-0.00217
1790069119.243751,-0.01016,0.00323,-0.99743,0.00326,0.00374,0.02934
1790069119.2663045,-0.01032,-0.0077,-0.99976,0.00296,0.00471,0.0323
1790069119.4460905,-0.01328,-0.00504,-0.99946,0.00738,0.00538,0.01174
1790069119.4642563,-0.00293,0.0108,-0.99919,0.00258,0.00286,-0.01264
1790069119.652943,-0.0001,0.02388,-0.9989,0.00275,0.00135,-0.03135
1790069119.6632571,0.00309,0.03032,-0.99886,-0.00058,0.00355,-0.02574
1790069119.8580546,-0.00159,0.02243,-0.99929,0.00029,0.00415,0.00425
1790069120.0584557,-0.00872,0.00415,-0.99918,0.00446,0.00298,0.02529
1790069120.0594103,-0.00929,-0.00385,-0.9987,0.0012,0.00375,0.03248
1790069120.2636504,-0.01096,-0.00433,-0.9987,0.00316,0.00784,0.0183
1790069120.2662146,-0.00956,0.00298,-0.99866,0.00093,0.00308,-0.00161
1790069120.2739446,-0.00261,0.01888,-0.99892,0.00067,0.00395,-0.0291
1790069120.474427,0.00295,0.03358,-0.99899,-0.0002,0.00195,-0.04146
1790069120.4764106,0.00096,0.03001,-0.99829,0.00514,0.0058,-0.0176
1790069120.675512,-0.00363,0.01356,-0.99856,0.0039,0.00584,0.01604
1790069120.878017,-0.01067,-0.00126,-0.99933,0.00347,0.00134,0.0376
1790069120.8784306,-0.01378,-0.01087,-1.00094,0.00205,0.005,0.03409
1790069121.079742,-0.01278,-0.00447,-0.99876,0.00357,0.00225,0.01312
1790069121.2878242,-0.00102,0.0249,-0.99884,0.00151,0.00364,-0.03643
1790069121.4892848,-0.00094,0.02288,-0.99989,0.00352,0.00597,-0.00089
1790069121.6975925,-0.00919,-0.00369,-0.99935,0.00471,0.00479,0.03561
1790069121.898267,-0.01359,-0.00834,-0.99891,-0.001,0.00359,0.01831
1790069121.898267,-0.00828,0.00594,-0.99776,0.00219,0.00391,-0.0054
1790069122.1066408,-0.00228,0.01632,-0.99763,-0.00038,0.00297,-0.02381
1790069122.1066408,-0.00041,0.02821,-0.99882,0.00346,0.00364,-0.03437
1790069122.1122904,0.00243,0.03047,-0.99933,0.0009,0.00382,-0.02766
1790069122.3152478,-0.00598,0.00276,-0.99845,0.00204,0.00209,0.03196
1790069122.5238545,-0.01353,-0.0044,-0.99848,0.00383,0.0044,0.01075
1790069122.725482,-0.00654,0.01111,-0.99906,0.00248,0.00524,-0.01668
1790069122.9263043,0.00075,0.03248,-0.99655,0.00236,0.00309,-0.03141
1790069122.9455168,-0.00217,0.02366,-1.00022,0.00209,0.00512,-0.00477
1790069123.1284616,-0.00661,0.01066,-0.99837,0.0017,0.0041,0.0225
1790069123.1412544,-0.01126,-0.00674,-0.99918,0.00365,0.00304,0.03981
1790069123.337089,-0.01355,-0.00953,-0.99901,0.00305,0.00567,0.02494
1790069123.343632,-0.00849,0.00391,-0.99946,-0.00108,0.00532,-0.00472
1790069123.5166638,0.00183,0.02732,-0.99891,0.00161,0.00443,-0.03864
1790069123.544436,0.00183,0.02732,-0.99891,0.00161,0.00443,-0.03864
1790069123.7461147,0.00312,0.03383,-0.99982,0.00175,0.00487,-0.03223
1790069123.7520297,-0.0018,0.02356,-0.99903,0.00303,0.00366,0.00194
1790069123.9541829,-0.01133,-0.00338,-0.998,0.00145,0.0014,0.03451
1790069124.1557138,-0.01133,-0.00338,-0.998,0.00145,0.0014,0.03451
1790069124.3637364,-0.01324,-0.00618,-0.99795,0.00197,0.0055,0.01563
1790069124.3637364,-0.00098,0.02527,-0.9995,-0.00073,0.00561,-0.03065
1790069124.5241637,0.0029,0.0344,-0.99999,0.00025,0.0015,-0.04259
1790069124.5640142,0.00198,0.03379,-0.99761,0.00242,0.00482,-0.02413
1790069124.772928,-0.0087,0.00573,-0.99994,0.0012,0.00119,0.02511
1790069124.9775543,-0.01182,-0.00599,-0.99819,0.00161,0.00387,0.03477
1790069124.9799042,-0.01253,-0.0117,-0.99916,0.00313,0.00551,0.03266
1790069125.181548,-0.0107,-0.00817,-0.99647,0.00264,0.00567,0.01684
1790069125.1835794,-0.00752,0.0067,-0.99966,0.00085,0.00187,-0.01005
1790069125.3844597,-0.00048,0.02273,-0.9996,-1e-05,0.00367,-0.02934
1790069125.524066,0.00192,0.03054,-0.99787,0.00089,0.00629,-0.02472
1790069125.79399,-0.00327,0.02508,-1.0001,0.0027,0.00463,-0.0035
1790069125.7943177,-0.01276,-0.00209,-0.99856,0.00374,0.00322,0.03507
1790069125.9959052,-0.01277,-0.00867,-0.99898,-0.00059,0.00385,0.03215
1790069126.0019403,-0.00968,-0.00324,-0.99952,0.00249,0.00459,0.01167
1790069126.2037427,-0.00562,0.01125,-1.00022,0.00097,0.00432,-0.01687
1790069126.2037427,0.00046,0.02933,-0.99825,0.00031,0.00287,-0.03709
1790069126.405345,0.00152,0.03249,-0.99678,0.00028,0.00523,-0.0352
1790069126.411513,0.00325,0.03395,-0.99919,0.00122,0.00824,-0.01931
1790069126.5231562,-0.00149,0.0231,-0.99906,0.00513,0.00229,0.00474
1790069126.6204402,-0.00711,0.01137,-0.99946,0.00286,0.00574,0.01995
1790069126.814689,-0.00906,0.00022,-0.99951,0.00393,0.00614,0.03403
1790069126.8210206,-0.01404,-0.00903,-0.99813,0.00124,-0.00107,0.04115
1790069127.023199,-0.01411,-0.0139,-0.99945,0.00139,0.00408,0.0302
1790069127.224751,-0.0117,-0.00301,-1.00012,0.0001,0.00387,0.00883
1790069127.418814,-0.00469,0.01268,-0.99686,0.00283,0.00433,-0.02133
1790069127.418814,-0.00221,0.02531,-0.99961,-0.00317,0.00496,-0.0362
1790069127.529975,0.00481,0.03373,-0.99756,0.00077,0.00367,-0.04565
1790069127.6406186,0.00435,0.03737,-0.99989,-0.00169,0.0044,-0.04138
1790069127.8427272,0.00166,0.03384,-0.99943,0.00024,0.00515,-0.02519
1790069128.0442848,-0.00073,0.02563,-0.99967,0.00359,0.00417,-0.00392
1790069128.0508316,-0.00358,0.01916,-0.9997,0.00314,0.00555,0.00209
1790069128.2531095,-0.00468,0.0163,-0.99874,0.00287,0.00554,0.00626
1790069128.3577569,-0.00656,0.01543,-0.99914,0.00288,0.00242,0.01105
1790069128.4655335,-0.00577,0.01777,-0.99752,0.00159,0.00847,0.00797
1790069128.543643,-0.00516,0.01968,-0.99837,-0.00023,0.00529,0.00074
1790069128.6614153,-0.00178,0.02001,-0.99905,0.00017,0.00446,-0.0041
1790069128.8661513,0.00017,0.02406,-1.00007,-0.00472,0.00279,-0.01159
1790069128.8681426,-0.00182,0.0229,-1.00001,-0.00112,0.00636,-0.01169
1790069129.0718312,-0.00074,0.02105,-0.99922,-0.00256,0.00561,-0.00973
1790069129.0840743,0.0007,0.02495,-1.00018,0.00231,0.00531,-0.01361
1790069129.2729886,0.00164,0.02524,-0.99911,-0.0004,0.00516,-0.02522
1790069129.4800377,0.00075,0.02735,-0.99827,0.00016,0.00427,-0.02656
1790069129.4810495,-0.00065,0.02693,-0.99903,-0.00134,-0.00097,-0.02567
1790069129.543253,0.00205,0.02732,-1.001,0.00021,0.0015,-0.02684
1790069129.682554,-5e-05,0.02474,-0.99945,0.00335,0.00768,-0.01889
1790069129.8896453,0.00031,0.02572,-0.99959,0.00071,0.00404,-0.0185
1790069129.890666,0.00259,0.02707,-1.00029,-0.00067,0.00464,-0.02151
1790069129.9803452,-0.00132,0.02671,-0.99793,-0.00063,0.00609,-0.01865
1790069130.022284,-0.00073,0.0276,-0.99937,0.00442,0.00421,-0.01838
1790069130.2996948,-0.00152,0.02527,-0.99906,0.00426,0.00571,-0.01264
1790069130.5016725,-0.00638,0.01598,-0.99908,0.00226,0.00455,0.00348
1790069130.5016725,-0.0049,0.01411,-0.99974,0.00476,0.00476,0.00863
1790069130.5434356,-0.00567,0.01258,-0.99972,0.00179,0.00396,0.01119
1790069130.7100692,-0.00757,0.0111,-0.9985,0.00266,0.00363,0.01504
1790069130.9112453,-0.00709,0.00614,-0.99915,0.00171,0.00465,0.01818
1790069130.924746,-0.01042,0.00239,-0.99922,0.00268,0.0058,0.02012
1790069131.112141,-0.01074,-0.00155,-1.00055,0.00081,0.00321,0.0205
1790069131.11928,-0.01154,-0.00136,-0.99951,0.00224,0.00331,0.0207
1790069131.32067,-0.011,-0.00205,-0.99716,0.00386,0.00166,0.02324
